Folder: getcode/Battery Data/RAW (part 2)

File: A123_07.csv
,Test_Time(s),Current(A),Voltage(V),Charge_Capacity(Ah),Discharge_Capacity(Ah),Charge_Energy(Wh),Discharge_Energy(Wh),dV/dt(V/s),Temperature (C)_1
1,8.01086,-1.09978,3.11079,0.0,0.001528765,0.0,0.004761715,-0.000738668,20.4023
214,1074.18,-1.09978,2.94706,0.0,0.327254,0.0,0.990064,-0.000184679,20.5219
451,2259.64,1.0996,3.50535,0.2339,0.418792,0.795219,1.24352,0.0,20.0675
664,3325.86,1.0996,3.55583,0.559555,0.418792,1.94704,1.24352,0.0,20.2455
877,4387.3,0.998902,3.60076,0.881181,0.418792,3.09875,1.24352,-6.1512e-05,20.5125
1090,5453.48,0.135791,3.60107,1.01834,0.418792,3.59268,1.24352,0.0,20.129
1327,6473.92,-0.412608,3.41456,1.0388,0.421436,3.66634,1.25262,-0.00086174,20.0675
1540,6687.33,-2.06214,2.96768,1.04154,0.452064,3.67591,1.34928,-0.000677109,19.8832
1754,6900.1,-0.824945,3.19635,1.04795,0.4793553,3.69863,1.43418,-0.014219,19.7465
1967,7113.58,1.64998,3.61123,1.05422,0.522387,3.72056,1.56532,0.001354218,19.7603
2181,7326.19,-0.824945,3.18158,1.05709,0.539197,3.73056,1.61965,-0.0144036,20.04
2395,7538.89,-0.412608,3.25791,1.06351,0.574742,3.75318,1.72634,-0.000246191,19.6702
2608,7752.33,-0.412608,3.25052,1.06625,0.596914,3.76247,1.79784,0.0,20.1766
2822,7965.13,-0.412608,3.25267,1.07267,0.632648,3.78506,1.90495,-0.000184631,19.9923
3035,8178.6,-0.824945,3.15111,1.07633,0.674966,3.79753,2.03334,6.15597e-05,20.0675
3249,8391.18,-0.412608,3.24252,1.08182,0.692378,3.81687,2.08919,0.0,19.862
3463,8603.89,-0.000270769,3.31454,1.08822,0.729598,3.83934,2.20072,0.000123119,19.6872
3676,8817.33,-0.412788,3.23452,1.09097,0.750283,3.8486,2.26705,-0.000184631,19.5917
3890,9030.02,-0.000451223,3.29853,1.09737,0.787373,3.87099,2.37779,0.0,20.1152
4103,9243.47,-0.825126,3.12864,1.10103,0.826215,3.88337,2.49432,-0.0568144,19.8143
4317,9456.15,-0.412608,3.2142,1.10652,0.845719,3.90258,2.55602,-0.000123119,19.7698
4530,9669.57,-0.000270769,3.28776,1.11294,0.884989,3.92496,2.6732,6.15597e-05,19.9785
4744,9882.33,-0.000270769,3.28499,1.11569,0.904251,3.93416,2.73443,0.000123119,19.8111
4958,10095,-0.825126,3.13387,1.12119,0.941409,3.95345,2.84479,-0.000246191,19.8387
5171,10308.5,-2.06214,2.88489,1.12393,0.976438,3.96263,2.95002,-0.00036931,19.8111
5385,10521.2,-0.825126,3.12864,1.13034,0.999925,3.98491,3.02271,-0.000246191,19.4857
5598,10734.6,-0.000270769,3.27668,1.13766,1.04042,4.01024,3.14338,6.15597e-05,19.9754
5812,10947.3,0.412247,3.337,1.13952,1.05968,4.01648,3.20449,0.0425955,19.6544
6026,11160,-0.412608,3.20343,1.14589,1.09406,4.03861,3.30566,-0.000123119,19.8048
6239,11373.415,-3.29915,2.6756,1.14864,1.12061,4.04779,3.38743,-0.00172348,19.7772
6453,11586.1,-0.412788,3.19789,1.15507,1.15194,4.07008,3.48105,-0.000123072,19.8218
6666,11799.5,-0.825306,3.09479,1.15873,1.19548,4.08235,3.61075,-6.15597e-05,19.7296
6880,12012.3,-0.412608,3.18681,1.16421,1.21168,4.10139,3.66199,0.0,19.8494
7094,12225,-0.000270769,3.26191,1.17061,1.24763,4.1235,3.76733,6.15597e-05,19.9998
7307,12438.4,-0.412608,3.17665,1.17336,1.26957,4.13263,3.83648,-0.000123072,20.0506
7521,12651.1,-0.000270769,3.24806,1.17977,1.30539,4.15469,3.94098,0.000246239,20.1227
7734,12864.6,-0.825126,3.06493,1.18344,1.34676,4.16689,4.0629,-6.15597e-05,19.8801
7948,13077.2,-0.412608,3.15388,1.18893,1.365,4.18579,4.11969,-0.000123119,19.877
8161,13290.7,-0.000270769,3.22467,1.19533,1.40304,4.20766,4.2302,0.0,19.8156
8375,13503.4,-0.412427,3.14095,1.19807,1.42291,4.21667,4.29201,-0.000184679,19.7234
8589,13716.1,0.412247,3.27022,1.20415,1.46079,4.23738,4.40129,0.00080018,19.8463
8802,13929.6,0.824945,3.28468,1.2069,1.4993,4.24635,4.51229,0.104642,19.986
9016,14142.2,-0.412608,3.10402,1.21363,1.51835,4.26906,4.57029,-0.0292998,19.9691
9229,14355.6,-0.000451223,3.1625,1.22004,1.55844,4.29053,4.68448,0.000184679,19.9967
9443,14568.4,-0.000451223,3.12803,1.22278,1.5777,4.29934,4.74297,0.0,19.9046
9657,14781.1,-0.412608,2.92951,1.22826,1.61334,4.31707,4.83956,-0.00049243,19.8432
9870,14994.5,-2.06214,2.23703,1.23101,1.64579,4.32539,4.92432,-0.00695562,19.8801
10084,16311.7,1.0996,3.52782,1.53834,1.65206,5.38119,4.93773,0.000123119,19.9384
10297,17377.9,1.0996,3.55891,1.86399,1.65206,6.53463,4.93773,0.000123072,20.2286
10510,18440.5,0.822058,3.60107,2.17942,1.65206,7.66502,4.93773,0.0,20.2211
10723,19505.8,0.0805726,3.60076,2.26321,1.65206,7.96674,4.93773,-6.1512e-05,19.7879
10960,20030.1,-0.762869,3.20651,2.27175,1.68553,7.99699,5.04059,-0.001538849,20.0982
11173,20243.8,-0.64792,3.2062,2.2737,1.72939,8.00363,5.17673,-0.0119415,20.023
11386,20457.6,0.372908,3.3884,2.27938,1.76048,8.02297,5.27207,-0.01163373,19.8832
11600,20671.2,-0.619769,3.20374,2.28374,1.80081,8.03776,5.39366,0.0175429,20.1904
11813,20885,0.177476,3.33239,2.28538,1.84646,8.0433,5.53478,0.0584764,19.8757
12027,21098.6,-0.709455,3.1902,2.29145,1.87431,8.06391,5.61905,-0.0291767,20.1936
12240,21312.3,-0.330501,3.24313,2.2957,1.91642,8.07825,5.74648,-0.0119415,19.8801
12453,21526,-0.502293,3.20866,2.29743,1.95944,8.08411,5.87883,0.0135419,19.791
12667,21738.7,-0.501391,3.19266,2.30398,1.99165,8.10622,5.97472,0.0336085,19.7465
12880,21952.4,-0.817727,3.13941,2.30739,2.0302,8.11764,6.09172,-0.0107719,19.9616
13093,22166,-0.000270769,3.29115,2.31119,2.06968,8.13046,6.212,6.15597e-05,19.6193
13307,22378.9,0.341509,3.33239,2.31671,2.1081,8.14894,6.32515,0.000861788,19.6872
13520,22592.6,-2.79983,2.77163,2.31924,2.15109,8.15739,6.455,-0.0216671,19.8069
13733,22806.3,-1.78189,2.96768,2.32372,2.18344,8.17241,6.5543,-0.0278841,19.8525
13947,23019.1,-1.50237,2.99815,2.33,2.22289,8.19342,6.66901,0.0147114,19.8218
14160,23232.7,0.0486322,3.26683,2.33194,2.26775,8.19991,6.8051,0.0197589,19.9277
14373,23446.4,-3.89771,2.58481,2.3363,2.29836,8.21449,6.89853,-0.072757,20.0537
14587,23659.2,-2.56759,2.81379,2.34198,2.33799,8.23345,7.01428,-0.0637701,19.9384
14800,23872.9,-0.450503,3.16373,2.34359,2.38431,8.23881,7.15444,0.0393331,19.8801
15014,24086.6,-2.23916,2.86488,2.34944,2.41195,8.25831,7.23665,-0.0640779,20.1227
15227,24300.4,-0.438052,3.15603,2.3538,2.45553,8.27275,7.36526,-0.0181585,20.129
15440,24514.1,-0.909397,3.06801,2.35539,2.49935,8.27799,7.49695,-0.0251757,20.1396
15654,24727.7,-1.50526,2.9686,2.36222,2.52606,8.3006,7.57517,-0.009356213,20.0475
15867,24941.6,-1.42008,2.95937,2.36562,2.57007,8.31177,7.70453,-0.0281302,20.1735
16080,25155.2,0.53261,3.2973,2.36819,2.61179,8.32019,7.82841,0.0186509,20.092
16294,25368.9,-2.41637,2.72885,2.37399,2.64873,8.33921,7.93369,0.001046419,20.0613
16507,25582.7,-0.604791,3.03385,2.37746,2.68862,8.35044,8.04989,-0.005109024,20.1227
16720,25796.5,-1.371,2.90274,2.38151,2.72415,8.36353,8.1539,0.002400637,20.0305
16934,26010,-0.000270769,3.08925,2.38824,2.75864,8.38494,8.24881,6.1512e-05,20.0305
17147,26223.7,-0.911924,2.54419,2.39015,2.80716,8.39045,8.37684,-0.044319,19.7603
17361,27379.2,1.0996,3.51059,2.63615,2.81739,9.2293,8.40109,6.15597e-05,20.0613
17574,28444.6,1.09942,3.54967,2.96157,2.81739,10.3796,8.40109,0.0,20.7826
17787,29505.3,1.06405,3.60107,3.28526,2.81739,11.5365,8.40109,0.0,20.0305
18000,30570.4,0.10349,3.60107,3.42133,2.81739,12.0265,8.40109,0.0,19.8494
18237,31291.1,-0.176755,3.34347,3.43309,2.836,12.0688,8.46088,0.0371787,19.9108
18450,31504.7,0.784162,3.47581,3.44278,2.8924,12.103,8.62632,0.0217902,20.0675
18663,31718.5,-0.0746178,3.30869,3.45129,2.93296,12.1331,8.748,-0.003816366,19.8801
18876,31932.4,0.927984,3.48135,3.45747,2.95981,12.1547,8.8315,0.0115722,19.8048
19089,32146.1,-1.12305,3.12095,3.46253,2.99135,12.1721,8.92987,0.000246239,20.0813
19302,32359.9,0.659108,3.43549,3.46859,3.01667,12.193,9.00775,-0.0148961,20.0613
19516,32572.8,-1.40601,3.08432,3.4727,3.03715,12.2073,9.07121,-0.0487509,20.0305
19729,32786.5,-1.89828,2.94275,3.47814,3.09109,12.2264,9.22971,0.006770945,19.8048
19942,33000.3,-1.68463,3.01969,3.48944,3.13278,12.2658,9.35315,-0.0264067,19.791
20155,33214,-0.380668,3.22805,3.49534,3.16642,12.2865,9.45539,0.0161272,19.7296
20368,33427.7,-1.09978,3.09787,3.5016,3.1997,12.3079,9.55787,-0.00172353,19.8048
20581,33641.4,-0.208875,3.25852,3.5073,3.22359,12.3274,9.63139,-0.005355215,19.8832
20794,33855.2,1.7541,3.58199,3.51142,3.25136,12.3415,9.7163,0.0811284,19.8801
21008,34068.2,-0.000451223,3.29084,3.51799,3.27445,12.3644,9.78683,0.0,19.8801
21221,34281.8,-2.88609,2.77009,3.52546,3.33724,12.39,9.96713,-0.0312695,19.7603
21434,34495.5,-2.07008,2.92028,3.53491,3.37322,12.423,10.0737,-0.0267761,19.8663
21647,34709.1,-0.268967,3.21728,3.5408,3.40543,12.4432,10.1719,0.0300384,19.8048
21860,34922.9,-1.14128,3.07694,3.54558,3.43421,12.4594,10.2607,-0.0401333,19.9553
22073,35136.6,-1.21148,3.05909,3.55116,3.45864,12.4784,10.3348,0.00406256,19.9754
22287,35349.8,0.380126,3.34039,3.5564,3.4819,12.4964,10.4053,-0.004001,19.9139
22500,35563.6,-0.334471,3.17942,3.56058,3.53926,12.511,10.5712,-0.008063602,19.7465
22713,35777.3,-0.227462,3.20989,3.57182,3.58274,12.5497,10.6967,0.0123724,20.023
22926,35991.1,-0.575919,3.17081,3.57922,3.60549,12.5752,10.7666,-0.0200666,19.808
23139,36204.8,0.0181355,3.25944,3.58417,3.64078,12.5919,10.8741,0.008617545,20.0613
23352,36418.5,-0.928165,3.08371,3.58969,3.66761,12.6107,10.9553,0.00744805,20.0613
23565,36632.2,-0.000270769,3.25821,3.59545,3.68974,12.6303,11.0221,6.15597e-05,20.1565
23779,36845.4,0.0693844,3.24744,3.60053,3.7185,12.6477,11.1079,-0.004678106,20.0167
23992,37059.2,1.24793,3.44811,3.61009,3.78225,12.6803,11.2885,-0.00818672,20.1227
24205,37273,-0.297117,3.16465,3.61737,3.81598,12.7052,11.3868,0.0136034,20.0305
24418,37486.8,0.129476,3.2219,3.62333,3.84932,12.7253,11.4859,0.00043087,19.9077
24631,37700.6,-0.000270769,3.21236,3.62918,3.87428,12.7448,11.5614,6.15597e-05,20.27
24844,37914.4,-0.000451223,3.20128,3.63436,3.89907,12.762,11.6347,6.15597e-05,20.181
25058,38128.1,-1.09057,2.97506,3.63892,3.9273,12.7773,11.7177,0.006340074,20.1841
25271,38341.7,-1.06711,2.92428,3.64371,3.98839,12.7934,11.8857,-0.006093836,19.9246
25484,38555.4,-0.612551,3.01292,3.65725,4.02294,12.8385,11.9813,-0.00984869,19.9246
25697,38769.2,-0.000631677,3.04493,3.66273,4.04892,12.8563,12.0558,0.000123119,19.6989
25910,38982.9,0.0693844,2.83872,3.66702,4.08273,12.8694,12.1477,0.0205591,19.791
26097,39169.1,-0.000631677,2.15578,3.67209,4.10678,12.884,12.2058,0.0,19.7603

File: A123_10.csv
,Test_Time(s),Current(A),Voltage(V),Charge_Capacity(Ah),Discharge_Capacity(Ah),Charge_Energy(Wh),Discharge_Energy(Wh),dV/dt(V/s),Temperature (C)_1
1,8.01394,-1.0996,2.51064,0.0,0.001529298,0.0,0.003876435,-0.004985857,26.6308
230,1151.14,1.09942,3.55891,0.305706,0.008314671,1.0576,0.0198602,6.15597e-05,27.2385
435,2177.16,1.0996,3.5863,0.619085,0.008314671,2.17745,0.0198602,6.15597e-05,27.6871
640,3201.24,0.879081,3.60138,0.913189,0.008314671,3.23587,0.0198602,0.0,27.5174
845,4227.2,0.13904,3.60138,1.03396,0.008314671,3.67077,0.0198602,6.15597e-05,27.0992
1074,5255.98,-0.481361,3.41764,1.05522,0.009667693,3.74735,0.0245063,-0.001538849,27.0551
1279,5462.07,-0.481541,3.27545,1.05843,0.0345434,3.7586,0.106228,-0.000246239,27.0415
1485,5667.2,-0.000270769,3.34408,1.0659,0.0757012,3.78561,0.226313,6.15597e-05,26.9872
1690,5873.24,-0.96227,3.12372,1.07017,0.12125,3.80039,0.360684,-0.0757732,26.8852
1896,6078.43,-0.481541,3.23575,1.07659,0.14288,3.82356,0.429157,-0.0380404,27.0551
2101,6284.4,-0.000451223,3.32962,1.08408,0.18959,3.8505,0.566391,6.15597e-05,27.0211
2307,6489.75,-0.96227,3.12803,1.08621,0.211209,3.85781,0.635386,-0.000184679,26.8988
2513,6694.98,-0.481541,3.23328,1.09369,0.250708,3.88468,0.749346,-0.000246239,27.0992
2718,6900.99,-0.4811804,3.22559,1.0969,0.275573,3.89562,0.828647,0.0,26.9328
2924,7106.25,-0.000270769,3.31977,1.10438,0.317416,3.92244,0.949722,0.000123119,27.0178
3129,7312.28,0.962812,3.46811,1.10794,0.36234,3.93463,1.08116,0.0015389,27.0245
3335,7517.48,0.481,3.39425,1.11475,0.384252,3.95898,1.14989,0.000615501,27.0415
3540,7723.46,-0.000451223,3.29545,1.12254,0.431315,3.9867,1.2869,0.0,26.9872
3746,7928.72,-0.96209,3.09602,1.12468,0.45158,3.99393,1.35095,-0.000307751,26.841
3952,8134.01,-0.481361,3.20097,1.13216,0.491758,4.02053,1.46574,-0.0185278,26.9225
4157,8339.91,-0.481361,3.1905,1.13536,0.51662,4.03133,1.54415,0.0,26.9633
4363,8545.26,-0.000270769,3.28591,1.14285,0.559102,4.05794,1.66604,-0.0187125,26.8819
4568,8751.25,0.962812,3.42718,1.14507,0.604015,4.06544,1.79616,0.131541,26.9055
4774,8956.46,0.481,3.36778,1.15252,0.625945,4.09192,1.86446,0.0564451,27.0584
4979,9162.49,-0.000451223,3.28068,1.16101,0.67298,4.12186,2.00044,-0.0754654,26.9125
5185,9367.68,-0.481361,3.17973,1.16315,0.692071,4.12905,2.0606,0.0,26.8104
5391,9573.01,-0.000270769,3.28222,1.17062,0.733423,4.15555,2.17824,0.000184679,27.072
5596,9778.96,-0.481361,3.17881,1.17383,0.757623,4.16633,2.25422,-6.15597e-05,26.8852
5802,9984.28,0.481,3.36162,1.18096,0.800792,4.19161,2.37737,0.000677109,27.062
6007,10190.2,-2.40572,2.73931,1.18346,0.842532,4.2,2.49772,-0.000369358,27.0856
6213,10395.5,-0.96227,3.05847,1.19094,0.866438,4.22639,2.57044,-0.00036931,27.2079
6418,10601.5,1.92481,3.62015,1.19815,0.914685,4.25141,2.70856,0.00172353,27.344
6624,10806.8,-0.481361,3.14003,1.20163,0.933103,4.26338,2.76588,-6.15597e-05,27.0789
6830,11012,-0.000451223,3.23821,1.20911,0.975117,4.28959,2.88387,0.000123072,27.2793
7035,11218.1,-0.481361,3.12833,1.21232,0.998659,4.30022,2.95662,-0.000246191,27.2046
7241,11423.3,0.480819,3.29238,1.21878,1.04247,4.32287,3.07944,0.0558912,27.157
7446,11629.3,-2.40572,2.67222,1.22195,1.08091,4.33333,3.18829,-0.000553989,26.9769
7652,11834.5,-0.96227,2.99076,1.22943,1.10676,4.35919,3.26411,-0.019328,27.2454
7857,12040.5,1.92481,3.5072,1.23395,1.15637,4.37411,3.40236,0.113383,27.4221
8063,12245.7,-0.481361,3.04,1.2401,1.17408,4.39523,3.45595,-0.000246239,27.5104
8269,12451,-0.000451223,3.00738,1.24757,1.21676,4.4197,3.56814,6.15597e-05,27.3609
8474,12657.1,-0.481361,2.76332,1.25077,1.23963,4.42933,3.63195,-0.00141578,26.9328
8680,13841.5,1.0996,3.53644,1.51065,1.24461,5.32667,3.64514,6.15597e-05,27.0756
8885,14867.6,1.09942,3.56845,1.82404,1.24461,6.44094,3.64514,0.0,27.609
9090,15889.9,1.0285,3.60107,2.13408,1.24461,7.55357,3.64514,6.1512e-05,27.4869
9295,16915.9,0.116483,3.60107,2.27899,1.24461,8.07542,3.64514,0.0,26.7225
9524,17673.4,-0.81899,3.20466,2.29209,1.26481,8.12252,3.70789,0.0502282,26.8716
9729,17879.3,0.565994,3.43334,2.29515,1.29916,8.13307,3.81442,0.138251,26.7935
9934,18085.4,-1.15734,3.11018,2.29855,1.33064,8.14471,3.91259,0.004431915,26.9872
10140,18290.4,0.246771,3.37486,2.30384,1.36392,8.16269,4.01196,-0.002031279,26.8649
10345,18496.4,-1.18152,3.08648,2.30589,1.40064,8.16965,4.12495,-0.0219748,26.7629
10550,18702.5,0.277448,3.37732,2.3096,1.43153,8.18231,4.22078,0.0589689,26.9191
10756,18907.5,0.00369922,3.329,2.31569,1.46267,8.203,4.31331,-0.004554987,26.8104
10961,19113.5,-0.818629,3.13941,2.31669,1.50581,8.20635,4.44492,0.0478276,26.8377
11166,19319.4,0.078768,3.32962,2.32059,1.53231,8.21961,4.52776,0.0677711,26.7902
11372,19524.6,-2.84675,2.75008,2.3263,1.56566,8.23894,4.62576,-0.000553989,26.7154
11577,19730.6,-0.335193,3.22713,2.32804,1.60605,8.2448,4.74932,-0.0204976,26.6303
11782,19936.5,0.439676,3.37517,2.33177,1.63334,8.25736,4.83385,0.0859911,26.9633
11988,20141.6,-1.41413,3.004,2.33691,1.66927,8.27468,4.93894,-0.0168043,26.8377
12193,20347.7,-0.920766,3.10156,2.3387,1.70751,8.28067,5.05558,-0.0262836,26.7902
12398,20553.6,-1.88114,2.92182,2.34266,1.73296,8.29398,5.13409,-0.0731263,26.7121
12604,20758.8,-0.130558,3.25114,2.34765,1.76989,8.31073,5.24213,-0.00258532,26.7596
12809,20964.8,-0.928886,3.09017,2.34929,1.81014,8.31624,5.36469,0.00338545,26.7799
13014,21170.9,0.635649,3.39733,2.35403,1.83729,8.33217,5.44646,0.002708387,26.7629
13220,21375.8,-1.54207,2.97076,2.35845,1.87165,8.34696,5.54804,-0.01169529,26.8649
13425,21581.8,-1.44643,2.98368,2.35992,1.91164,8.35189,5.66972,-0.032439,26.9195
13631,21787,-0.000451223,3.27637,2.36525,1.93608,8.36977,5.74293,0.000123119,26.8649
13836,21993,-0.681845,3.12526,2.36908,1.97371,8.38254,5.8543,0.0320082,26.9464
14041,22199,-0.535677,3.14495,2.37055,2.01348,8.38746,5.97485,-0.003693294,27.1367
14247,22404.1,-1.17683,3.02185,2.3759,2.03788,8.4053,6.04704,0.01212616,26.9397
14452,22610,-0.776944,3.08709,2.37984,2.07524,8.41839,6.15729,-0.0142806,27.0756
14657,22815.9,0.008391018,3.23175,2.38129,2.1144,8.4232,6.27495,-0.0068325,27.0856
14863,23021.1,0.585483,3.34408,2.38684,2.13884,8.44158,6.34662,0.0227135,27.0856
15068,23227,-1.04347,3.01446,2.39058,2.17637,8.45394,6.45658,-0.04591937,27.0925
15273,23432.8,0.016331,3.20435,2.39192,2.21492,8.45834,6.57133,0.002831507,27.1537
15479,23638.2,-1.15211,2.98461,2.39813,2.23767,8.47873,6.63704,-0.0443805,27.1876
15684,23844.1,-0.375073,3.10125,2.40123,2.27723,8.48883,6.75177,0.00043087,27.3235
15889,24049.9,-0.834509,2.99815,2.40278,2.31581,8.49386,6.86505,-0.0285611,27.4729
16095,24255.2,-1.33599,2.85534,2.40874,2.34381,8.5132,6.94399,0.008125162,27.2963
16300,24461,-0.192274,2.9803,2.41184,2.37805,8.52304,7.04044,0.0288689,26.5692
16505,24666.9,0.432999,2.80887,2.41403,2.41558,8.52941,7.13966,0.008371353,26.746
16711,25603.2,1.0996,3.49212,2.58195,2.42558,9.09615,7.16324,6.15597e-05,27.1401
16916,26628.5,1.0996,3.55644,2.89511,2.42558,10.2041,7.16324,0.0,27.8092
17121,27653.7,1.0996,3.59584,3.20825,2.42558,11.3233,7.16324,0.0,27.456
17326,28675.8,0.255252,3.60107,3.44148,2.42558,12.163,7.16324,-6.15597e-05,26.7935
17555,29671.3,0.121355,3.49366,3.46864,2.43013,12.2608,7.17764,0.00313926,26.8852
17760,29876.9,-1.56408,3.00307,3.47424,2.48564,12.2812,7.34024,0.0299768,27.1468
17965,30082.8,-0.000270769,3.33762,3.48608,2.52563,12.3232,7.45756,6.15597e-05,26.7935
18170,30288.5,-1.93004,2.9566,3.49228,2.55806,12.3453,7.55547,-0.0137266,27.0248
18375,30494.3,-0.599197,3.20343,3.49836,2.594,12.3665,7.66552,0.0196358,27.2185
18580,30700,-1.27175,3.0717,3.50304,2.61979,12.3827,7.74498,0.0115106,27.0314
18785,30905.7,-2.12493,2.91597,3.50849,2.64273,12.4017,7.81543,-0.0822979,26.8104
18991,31110.7,-0.745545,3.17019,3.51337,2.67294,12.4187,7.90728,0.003816366,27.0551
19196,31316.5,0.75529,3.44872,3.51946,2.73444,12.4403,8.08239,0.000307798,26.9125
19401,31522.3,-0.351073,3.24713,3.53251,2.77075,12.4865,8.18774,0.000738668,26.9397
19606,31728.2,1.05737,3.50689,3.53778,2.79798,12.505,8.27152,0.0278225,26.9125
19811,31934.1,-0.969669,3.10802,3.54277,2.83196,12.5221,8.37534,-0.0158195,26.9872
20016,32140.2,-0.745545,3.14126,3.54812,2.85972,12.5406,8.45948,0.005909204,26.9566
20221,32346,-0.000451223,3.29515,3.55415,2.88135,12.5616,8.52458,0.0,26.8819
20427,32550.8,-3.22047,2.66391,3.55934,2.90863,12.5797,8.60648,-0.05743,26.7663
20632,32756.7,-0.633483,3.14803,3.56719,2.97706,12.6069,8.79961,0.030654,26.7187
20837,32962.5,-0.015068,3.2773,3.57712,3.01076,12.6419,8.89786,0.0227135,27.062
21042,33168.4,0.014346,3.27176,3.58332,3.04305,12.6634,8.99518,0.0179123,26.9872
21247,33374.5,-0.881968,3.10802,3.58831,3.07259,12.6804,9.08546,-0.0237599,26.8377
21452,33580.5,-0.638536,3.16065,3.59417,3.09538,12.7006,9.15375,-0.02456007,27.062
21658,33786.3,-0.443285,3.18527,3.59832,3.1206,12.7149,9.2295,0.0850678,27.0145
21863,33992,-2.55351,2.73962,3.60402,3.17403,12.7349,9.38066,-0.0024622,26.8988
22068,34197.7,-0.000451223,3.27391,3.61586,3.2162,12.7761,9.50148,6.15597e-05,27.062
22273,34403.6,-1.34014,3.01231,3.62205,3.24717,12.7978,9.59296,-0.028438,27.4935
22478,34609.7,-0.6241,3.13264,3.62813,3.28356,12.8186,9.70194,-0.009233141,27.5376
22683,34815.8,-1.9979,2.86273,3.63284,3.30895,12.8345,9.77852,0.0251757,27.2829
22888,35021.5,-0.000451223,3.25206,3.63827,3.33244,12.853,9.84887,0.0157578,27.1743
23094,35226.8,-0.852735,3.07109,3.64315,3.36264,12.8697,9.93826,-0.035209,27.0554
23299,35432.4,0.769906,3.36101,3.64852,3.42499,12.8883,10.1106,0.0298538,27.0859
23504,35638.4,-0.385359,3.15357,3.66231,3.46081,12.936,10.211,-0.0147114,27.1165
23709,35844.4,0.350532,3.27237,3.66706,3.48847,12.9522,10.2935,0.0529366,27.6532
23914,36050.4,-0.5604,3.08617,3.67257,3.52192,12.9706,10.3923,0.0259143,27.6363
24119,36256.1,-0.618506,3.05539,3.67791,3.54954,12.9885,10.4731,0.009171533,27.1638
24324,36462,-0.000451223,3.18897,3.68396,3.57177,13.009,10.5375,6.15597e-05,26.8379
24530,36667,-1.76854,2.83564,3.68915,3.59706,13.0265,10.6109,-0.0311464,27.1198
24735,36872.8,-1.42748,2.72054,3.697,3.66691,13.0521,10.7948,-0.0241292,27.0551
24940,37078.9,-0.609122,2.74177,3.70689,3.70105,13.084,10.8826,0.0182816,26.7323
25104,37241.9,0.00153377,2.34321,3.71133,3.72435,13.0972,10.94,0.003693247,26.7629