Folder: getcode/Battery Data/RAW

Note: README.md
# getcode

Battery data was collected from the CALCE Lab at the University of Maryland via their open source datasets. To access the data can be found at:

https://calce.umd.edu/battery-data

File: A123_01.csv
,Test_Time(s),Current(A),Voltage(V),Charge_Capacity(Ah),Discharge_Capacity(Ah),Charge_Energy(Wh),Discharge_Energy(Wh),dV/dt(V/s),Temperature (C)_1
1,8.06527,-1.09918,2.46847,0.0,0.001528987,0.0,0.00383082,-0.007017279,1.25617
218,1092.67,1.09994,3.58108,0.287506,0.008765985,1.00477,0.0203669,0.0,1.3491
411,2058.42,1.00809,3.60016,0.577141,0.008765985,2.04594,0.0203669,0.0,1.41106
604,3024.36,0.642385,3.60016,0.806328,0.008765985,2.87105,0.0203669,0.0,1.32787
797,3990.37,0.206053,3.60016,0.910466,0.008765985,3.24597,0.0203669,-6.1512e-05,0.739242
990,4956.33,0.0922278,3.60047,0.947028,0.008765985,3.37759,0.0203669,0.0,0.104898
1183,5922.25,0.0552251,3.60016,0.966072,0.008765985,3.44615,0.0203669,6.15597e-05,-0.0125827
1400,6246.12,0.000190588,3.34963,0.969486,0.0312106,3.45802,0.0934652,-0.017851,-0.217177
1594,6439.32,-0.480845,3.22467,0.975906,0.0698322,3.48107,0.204418,-0.000307751,-0.0747605
1787,6633.26,-0.480657,3.21328,0.979157,0.0930613,3.49211,0.278154,-0.000123119,-0.16805
1981,6826.43,-0.96188,3.11018,0.985571,0.134152,3.51505,0.396234,-0.000861788,0.139097
2174,7020.39,-3.84922,2.5531,0.988778,0.158041,3.5259,0.471115,-0.129266,0.355956
2368,7213.58,0.000190588,3.29454,0.996254,0.196894,3.55236,0.582148,0.000123119,0.490478
2561,7407.52,-2.40593,2.74854,0.998395,0.238624,3.55958,0.703427,-0.000615549,0.321714
2755,7600.72,-0.480845,3.18189,1.00589,0.259868,3.58601,0.76824,-0.000184631,0.797989
2948,7794.73,-0.962256,3.03908,1.01017,0.305767,3.6005,0.900271,-0.000123119,0.649532
3142,7987.91,-0.480657,3.17266,1.01658,0.324292,3.62314,0.95774,-0.0374255,1.04577
3335,8181.9,1.92527,3.62386,1.02388,0.371084,3.64876,1.09174,0.001477289,0.352693
3529,8375,-0.480845,3.15912,1.02622,0.388138,3.65664,1.14507,0.0,1.01479
3722,8568.94,0.000190588,3.25329,1.03368,0.431493,3.68282,1.26781,0.000184679,0.197813
3916,8762.15,-0.962068,3.04862,1.03581,0.453368,3.68996,1.33599,-0.000307751,0.476616
4110,8955.31,0.000190588,3.2576,1.0433,0.491887,3.71619,1.44344,0.000246191,0.166839
4303,9149.27,-0.478215,3.1785,1.04651,0.514327,3.7269,1.51324,-0.0149579,0.621774
4497,9342.43,-0.480845,3.1508,1.05294,0.554945,3.74957,1.62709,-6.15597e-05,0.366558
4690,9536.42,-0.480657,3.14465,1.05614,0.578183,3.76025,1.69926,-0.000123119,0.631547
4884,9729.59,0.481226,3.33609,1.06337,0.619614,3.78554,1.81497,0.001046419,0.748936
5077,9923.62,-2.40574,2.69191,1.06573,0.654036,3.7934,1.91404,-0.000738668,0.476616
5271,10116.7,-0.480845,3.14003,1.07321,0.681148,3.81949,1.99277,-0.000184631,0.85575
5464,10310.7,-0.962068,2.98768,1.0775,0.725503,3.83378,2.11764,-0.0774979,0.507602
5658,10503.9,-0.96188,3.01446,1.08285,0.7464,3.85266,2.1812,-0.00043087,0.956064
5851,10697.8,-0.962068,2.96275,1.08713,0.792873,3.86687,2.31119,-0.000123119,0.44238
6045,10891,-0.480657,3.10618,1.09355,0.80939,3.8892,2.36181,-0.000123119,1.0384
6238,11085,0.000190588,3.19266,1.10104,0.854173,3.91501,2.4855,0.000184631,0.521458
6432,11278.1,-0.480845,3.08156,1.10318,0.873243,3.92203,2.54384,-6.15597e-05,1.0384
6625,11471.3,0.000378419,3.1862,1.11066,0.914565,3.94766,2.65558,0.000184631,0.600558
6819,11665.3,0.000190588,3.16896,1.11386,0.937007,3.9581,2.72344,0.000184679,1.14195
7013,11858.5,-0.481033,3.0594,1.12028,0.976189,3.98005,2.82707,-0.000615549,0.666626
7206,12052.5,-0.480657,3.02554,1.12349,0.999439,3.99039,2.89656,-0.00049243,1.27975
7400,12245.6,-0.962068,2.86119,1.12991,1.04105,4.01183,3.00397,-0.001908207,1.32135
7593,12439.6,-3.84922,2.08744,1.13312,1.06817,4.02195,3.07887,-0.0130497,1.16646
7787,12632.7,0.000190588,2.95198,1.14059,1.10271,4.04542,3.16256,0.000615549,1.92482
7981,13245.6,1.09994,3.46566,1.1886,1.12306,4.2062,3.21726,0.00043087,0.538585
8174,14211.5,1.10013,3.58046,1.48374,1.12306,5.2527,3.21726,0.0,1.10451
8367,15173.4,1.03138,3.60016,1.7746,1.12306,6.29779,3.21726,0.0,1.3491
8560,16139.4,0.530813,3.60016,2.00118,1.12306,7.11351,3.21726,-6.1512e-05,1.09063
8753,17105.2,0.112889,3.60016,2.06964,1.12306,7.35997,3.21726,0.0,0.0429594
8970,18133.7,-2.04003,3.08463,2.08892,1.12423,7.42936,3.22095,-0.0744817,-0.029747
9163,18327.7,-0.681448,3.17666,2.09274,1.16055,7.44252,3.33165,-0.000430918,-0.0779938
9356,18521.6,-0.410596,3.20436,2.09421,1.1978,7.44747,3.44597,0.0399493,-0.0812081
9549,18715.5,0.000190588,3.30285,2.09955,1.22172,7.46551,3.5182,-0.007078839,0.0365877
9743,18908.5,-2.34056,2.8381,2.10336,1.2544,7.47833,3.61524,-0.0644482,0.277942
9936,19102.5,-0.818941,3.10464,2.10483,1.2931,7.48324,3.73302,0.0142192,0.460547
10129,19296.5,-3.55245,2.59527,2.1088,1.31696,7.49657,3.80595,-0.0727582,0.0878086
10323,19489.5,0.249818,3.30623,2.11375,1.35132,7.51316,3.90623,0.0377948,0.418861
10516,19683.4,0.105564,3.26899,2.11543,1.38772,7.51879,4.0162,0.0221599,0.674123
10709,19877.4,0.426004,3.34132,2.11905,1.41289,7.53087,4.09322,0.0855617,0.519313
10903,20070.4,-1.11139,3.02123,2.1243,1.44541,7.54838,4.18665,0.0261609,0.426441
11096,20264.4,0.152334,3.2573,2.12535,1.48405,7.55183,4.30274,0.0208056,0.457397
11289,20458.3,-1.27744,3.00584,2.1292,1.50804,7.56466,4.37607,-0.032932,0.567334
11483,20651.3,0.008642986,3.25822,2.13493,1.53858,7.58372,4.46419,-0.005170631,0.519313
11676,20845.3,-1.70982,2.8775,2.13574,1.57688,7.58639,4.57833,-0.0220983,0.395488
11869,21039.3,0.134114,3.27976,2.1394,1.60437,7.59855,4.6612,-0.002769947,0.409403
12063,21233.2,0.266911,3.28407,2.144,1.63734,7.61379,4.75635,-0.001846647,0.392369
12256,21427.2,0.566126,3.31146,2.14626,1.6714,7.62129,4.85743,0.139238,0.256535
12449,21621.2,0.000190588,3.24714,2.14964,1.70112,7.6325,4.9466,-0.001354218,0.53135
12643,21815.2,-2.02256,2.80363,2.15379,1.73179,7.64624,5.03521,-0.0207441,0.824169
12836,22009.1,-0.744935,3.06401,2.1568,1.76377,7.65611,5.12965,-0.0183434,0.46276
13029,22203.1,0.521234,3.3207,2.15879,1.79979,7.66268,5.23629,0.00541687,0.256535
13223,22397,-0.456802,3.09664,2.16432,1.82743,7.68095,5.31547,0.036256,0.797989
13416,22591,-0.465443,3.10002,2.16743,1.85989,7.69111,5.41029,0.0148963,0.519313
13609,22785,-0.457554,3.08894,2.16899,1.89672,7.69621,5.51852,0.0141577,0.519313
13803,22979,-1.15197,2.97845,2.17496,1.91817,7.71577,5.57973,-0.0449968,0.670964
13996,23173,-0.0199073,3.14988,2.17803,1.95627,7.72573,5.68892,-0.00166197,0.578089
14189,23366.9,-0.351054,3.06586,2.17935,1.99347,7.72997,5.79668,0.0127419,0.698787
14383,23560.9,0.0120239,3.13603,2.18478,2.01683,7.74757,5.86266,-0.004124212,0.650795
14576,23754.9,-1.05129,2.88858,2.18854,2.05209,7.75963,5.96116,-0.0310853,0.487228
14769,23948.9,-0.002439047,3.01384,2.1899,2.08996,7.76387,6.0675,0.0475206,0.986005
14963,24142.8,-2.03853,2.65806,2.19518,2.11093,7.7805,6.12485,-0.0839612,1.31382
15156,24336.8,-0.306538,2.74854,2.19898,2.14779,7.79213,6.22095,0.002462244,1.05967
15350,25221.2,1.09975,3.54106,2.3491,2.16395,8.31487,6.26314,0.000123119,1.20835
15543,26186.5,1.09975,3.59062,2.64399,2.16395,9.3686,6.26314,6.1512e-05,1.46921
15736,27151,0.930894,3.60047,2.92411,2.16395,10.3767,6.26314,6.1512e-05,1.74404
15929,28116.3,0.264845,3.60016,3.09168,2.16395,10.9799,6.26314,0.0,1.03858
16122,29081.6,0.0734447,3.60047,3.12831,2.16395,11.1119,6.26314,0.0,0.560724
16339,29705.4,-0.803351,3.17543,3.13687,2.18329,11.1426,6.3238,0.014527,0.0636414
16532,29899.1,0.881682,3.44535,3.14255,2.24258,11.1627,6.491,0.00547838,0.213909
16725,30092.8,1.03251,3.50105,3.15564,2.27839,11.2088,6.59418,-0.008617735,0.293832
16918,30286.4,-0.443091,3.22344,3.16051,2.30075,11.2259,6.66277,-0.0166814,0.297952
17111,30480.1,0.0781405,3.29854,3.16558,2.33608,11.2433,6.76995,0.0134806,0.908698
17304,30673.7,1.05693,3.49582,3.17112,2.36008,11.2623,6.84268,0.0285,1.04686
17497,30867.4,-0.730472,3.12741,3.17515,2.38351,11.2762,6.91323,0.0645714,1.00219
17691,31060.4,-1.04284,3.06032,3.17996,2.41001,11.2929,6.99279,-0.0281307,0.837031
17884,31254.1,0.638441,3.34563,3.18481,2.46997,11.3099,7.15909,0.008863926,1.03754
18077,31447.8,-0.784755,3.0874,3.19601,2.50726,11.3488,7.26504,-0.006524849,0.872386
18270,31641.5,2.75712e-06,3.26776,3.20378,2.53084,11.3758,7.33647,-0.0285616,0.510933
18463,31835.2,-0.720517,3.11018,3.20877,2.56319,11.3928,7.43307,-0.0407495,1.22457
18656,32028.8,-1.46132,2.95321,3.21298,2.58779,11.4071,7.50683,0.0197592,1.43859
18849,32222.4,-0.219384,3.21944,3.21842,2.60911,11.4256,7.5705,-0.006524849,1.28693
19043,32415.3,-0.86233,3.07386,3.2232,2.63603,11.4421,7.65001,-0.0343478,1.16643
19236,32608.8,-0.823073,3.028,3.22745,2.69224,11.457,7.80593,0.00775595,0.666802
19429,32802.5,-1.43258,2.92182,3.23925,2.73468,11.4977,7.92322,0.0375486,0.559801
19622,32996.1,-1.69066,2.89781,3.24545,2.75886,11.5192,7.99604,-0.003754854,0.56403
19815,33189.7,-1.12041,2.99938,3.25153,2.79092,11.5399,8.09096,0.0143424,0.715684
20008,33383.3,2.75712e-06,3.24991,3.25624,2.8131,11.5558,8.1577,0.000123119,1.50519
20201,33576.8,0.000190588,3.24252,3.26167,2.83913,11.5742,8.23436,-0.0259763,1.11255
20395,33770.3,-2.02651,2.81379,3.26639,2.86332,11.5904,8.30497,-0.0159428,0.885052
20588,33964,-0.209805,3.11079,3.27071,2.91782,11.6054,8.45435,0.0254223,0.826946
20781,34157.7,0.000190588,3.21944,3.28252,2.95437,11.6458,8.55548,0.000184679,0.813488
20974,34351.3,2.75712e-06,3.22098,3.28872,2.9843,11.6671,8.6415,0.000184679,0.737661
21167,34545,0.263154,3.2416,3.29367,3.01795,11.6838,8.73942,0.0168661,0.800033
21360,34738.8,2.75712e-06,3.20497,3.29951,3.0432,11.7033,8.81416,6.15597e-05,1.71004
21553,34932.3,-0.609321,3.05016,3.30411,3.06831,11.7187,8.8866,-0.025053,1.71004
21747,35125.2,-0.442903,3.10095,3.30892,3.08899,11.7349,8.94611,-0.0597085,1.13454
21940,35318.7,-2.21659,2.58819,3.31392,3.14019,11.752,9.08247,-0.0357636,0.907048
22133,35512.4,2.75712e-06,3.1388,3.32578,3.18445,11.7916,9.20002,-0.0342862,0.938238
22326,35706.1,2.75712e-06,3.12311,3.33198,3.21435,11.8124,9.28248,0.0,0.969428
22519,35899.8,0.135992,3.01292,3.33656,3.24701,11.8274,9.37246,0.0249299,1.04956
22712,36093.5,0.360451,3.03693,3.34157,3.2733,11.8432,9.44538,0.0397646,2.11127
22905,36287.2,-0.789451,2.7467,3.34734,3.29507,11.8613,9.50253,-0.00332398,2.14247
23099,36480.2,-1.47579,2.58173,3.35148,3.31503,11.874,9.55381,-0.0657409,2.06663
23246,36626.1,-0.00131206,2.54233,3.35578,3.33659,11.8868,9.60563,0.0,1.83911

File: A123_03.csv
,Test_Time(s),Current(A),Voltage(V),Charge_Capacity(Ah),Discharge_Capacity(Ah),Charge_Energy(Wh),Discharge_Energy(Wh),dV/dt(V/s),Temperature (C)_1
1,8.01576,-1.09918,2.72915,0.0,0.00152901,0.0,0.004195896,-0.00295463,9.6909
220,1099.26,1.09994,3.52968,0.275255,0.0230313,0.944638,0.0581858,0.0,10.255
415,2075.18,1.10013,3.56384,0.573455,0.0230313,2.00273,0.0581858,6.15597e-05,11.2283
610,3047.61,0.894454,3.59985,0.862581,0.0230313,3.03959,0.0581858,-6.15597e-05,11.1631
805,4023.51,0.149328,3.60016,0.975532,0.0230313,3.44624,0.0581858,-6.1512e-05,10.303
1000,4999.41,0.0612357,3.60016,1.00097,0.0230313,3.53781,0.0581858,0.0,9.96606
1219,5448.08,-0.480657,3.28592,1.00582,0.0411678,3.55504,0.11821,-0.000307751,9.85618
1414,5643.99,0.000190588,3.32993,1.01331,0.083442,3.58165,0.243689,0.000123119,9.78047
1610,5839.2,0.000190588,3.32008,1.01652,0.105872,3.59256,0.315554,-0.0158197,9.89035
1806,6034.41,-0.480657,3.23883,1.02293,0.144881,3.61539,0.429919,-0.000123119,10.2135
2001,6230.28,-0.480845,3.23113,1.02613,0.168377,3.62623,0.505048,-0.000123072,10.0727
2197,6425.56,-0.962068,3.13819,1.03256,0.210661,3.64908,0.629431,-0.000369358,10.1793
2392,6621.48,-2.40574,2.85811,1.03576,0.241435,3.65991,0.722513,0.0477668,9.8391
2588,6816.71,-0.480657,3.22036,1.04324,0.272124,3.68623,0.814617,-0.00036931,9.92867
2783,7012.66,-0.96188,3.09971,1.04752,0.316504,3.70073,0.945559,-0.0631556,10.3406
2979,7207.87,-0.962068,3.1111,1.05286,0.337937,3.71967,1.01277,-0.00043087,10.1236
3174,7403.8,-0.96188,3.08433,1.05714,0.384924,3.73413,1.15082,0.0,10.8838
3370,7599,-0.480845,3.18958,1.06356,0.401453,3.75664,1.20302,-0.000123119,10.334
3565,7794.95,0.000378419,3.27268,1.07103,0.445739,3.78277,1.33207,0.000246239,10.54
3761,7990.17,-0.96188,3.09694,1.07317,0.46679,3.78994,1.39848,-0.000184679,10.2165
3957,8185.39,0.000378419,3.27515,1.08066,0.506098,3.816095,1.51159,0.000184679,10.385
4152,8381.41,-0.480845,3.18866,1.08387,0.52868,3.82681,1.58267,-0.0163736,10.2135
4348,8576.58,-0.480845,3.18312,1.090282,0.56959,3.84933,1.7008,-6.15597e-05,10.1964
4543,8772.53,-0.480657,3.17789,1.09348,0.593097,3.86002,1.77472,-6.15597e-05,10.1346
4739,8967.72,0.000190588,3.26376,1.10095,0.633827,3.88603,1.89177,0.000184631,10.1175
4934,9163.75,-2.40574,2.7864,1.10309,0.674289,3.89316,2.01017,-0.000553989,10.1793
5130,9358.86,-0.480657,3.17266,1.11057,0.696818,3.91917,2.07866,-6.15597e-05,10.0931
5325,9554.8,-0.962068,3.04616,1.11485,0.743223,3.93348,2.21334,-6.15597e-05,10.2103
5521,9750.05,-0.480845,3.16342,1.12127,0.76176,3.95583,2.27094,-0.000307798,9.93188
5716,9946.09,0.000378419,3.23421,1.12875,0.808036,3.98171,2.40446,-6.15597e-05,10.2795
5912,10141.2,-0.480845,3.1465,1.13089,0.826169,3.98879,2.46109,-0.000123119,9.87003
6107,10337.2,2.75712e-06,3.23206,1.13838,0.868417,4.01462,2.58132,0.000123119,10.5204
6303,10532.4,0.000190588,3.2219,1.14159,0.890856,4.02521,2.65093,-0.0161275,10.1964
6499,10727.5,-0.480845,3.1348,1.148,0.929904,4.04739,2.76073,-0.000307798,10.3755
6694,10923.5,-0.480657,3.1191,1.1512,0.953409,4.05791,2.83329,-0.000184679,10.0971
6890,11118.7,-0.962068,3.01138,1.15761,0.995707,4.07995,2.95209,-0.000554037,10.5651
7085,11314.7,-2.40593,2.69622,1.16082,1.02652,4.09043,3.04105,0.0493057,10.6408
7281,11509.9,-0.480657,3.08863,1.16829,1.05713,4.11573,3.12824,-0.000553989,10.7165
7476,11705.8,-0.96188,2.92551,1.17256,1.10156,4.12954,3.25137,-0.0635865,11.0737
7672,11901,-0.962256,2.91874,1.1779,1.12297,4.14762,3.31469,-0.00116954,10.4268
7867,12096.9,-0.962256,2.64451,1.18218,1.16998,4.16088,3.43763,-0.001354218,11.1355
8063,12292.1,-0.480845,2.73254,1.18861,1.18649,4.18114,3.48318,-0.0009233,10.8125
8259,13183,1.09994,3.48259,1.34107,1.19767,4.69733,3.51265,0.000123119,9.90096
8454,14159,1.09994,3.54476,1.63927,1.19767,5.74855,3.51265,0.0,10.3649
8649,15134.9,1.09994,3.58415,1.93748,1.19767,6.81064,3.51265,6.1512e-05,11.1119
8844,16110.8,0.255265,3.60016,2.15,1.19767,7.57522,3.51265,6.15597e-05,10.8402
9039,17086.8,0.0612357,3.60016,2.18252,1.19767,7.69229,3.51265,0.0,10.0865
9258,17504.1,-0.145379,3.30685,2.18819,1.22857,7.71216,3.60847,-0.0125573,9.80818
9453,17700,-0.815372,3.17297,2.18989,1.26518,7.7179,3.72248,-0.0192667,9.80818
9648,17896,0.000190588,3.31916,2.19386,1.29,7.73133,3.80048,-0.00443201,9.74632
9844,18091,-0.343352,3.23944,2.19872,1.32451,7.74775,3.90362,0.010095,9.8391
10039,18287.1,-0.81988,3.15788,2.20047,1.36169,7.75362,4.01863,-0.0275767,9.8391
10234,18483,0.003008054,3.31085,2.20402,1.38653,7.76561,4.09652,-0.00289307,9.8391
10430,18679,-2.63546,2.84949,2.20935,1.41839,7.78353,4.19145,-0.0152657,9.86682
10625,18874.9,-0.808422,3.12803,2.21036,1.4596,7.78689,4.31773,0.0024622,9.88388
10820,19070.9,-0.912856,3.13388,2.21425,1.48359,7.79994,4.39258,-0.0310853,10.1207
11016,19265.9,0.003571548,3.28376,2.21998,1.51444,7.81907,4.48414,-0.004062653,10.0418
11211,19461.8,-1.84018,2.93567,2.22078,1.55446,7.82176,4.60579,-0.005355311,10.2412
11406,19657.8,-1.60332,3.0003,2.22446,1.58129,7.83404,4.6887,-0.0343478,10.1859
11602,19852.8,0.395199,3.33178,2.22953,1.61323,7.8509,4.78322,0.003754854,9.8391
11797,20048.5,-0.215064,3.21298,2.23141,1.64836,7.85716,4.88998,0.0263456,9.90096
11992,20244,-1.29941,3.05078,2.2347,1.67753,7.86814,4.9794,-0.0352711,10.0003
12188,20439.6,0.353689,3.301,2.23901,1.71196,7.8825,5.08126,0.0376102,10.1517
12383,20635.3,-0.570065,3.14619,2.24185,1.74299,7.89189,5.1759,0.009233284,9.91481
12578,20831,0.175437,3.29638,2.24526,1.77568,7.90326,5.27513,0.00535526,9.99374
12774,21026.5,-1.55355,2.9803,2.24947,1.80463,7.91722,5.36093,-0.03958,10.124
12969,21222.1,-0.46394,3.16189,2.25247,1.83807,7.92714,5.4616,0.01218791,10.0865
13164,21417.7,0.521234,3.33208,2.25447,1.87446,7.93377,5.57176,0.004493522,9.90096
13360,21612.6,-0.045828,3.21359,2.25999,1.90222,7.95206,5.65343,0.0344093,9.96281
13555,21808.2,-0.0101401,3.22375,2.26309,1.9349,7.96227,5.75124,0.0155119,10.076
13750,22003.7,-0.833779,3.07448,2.26465,1.97217,7.96739,5.86351,-0.00043087,10.1793
13946,22198.5,-2.04867,2.86704,2.27062,1.99488,7.98708,5.93012,-0.0395184,10.2721
14141,22394.2,0.0822728,3.21575,2.27372,2.03182,7.99722,6.03927,0.0228369,10.2583
14336,22590,0.804859,3.32993,2.27518,2.06895,8.00198,6.15014,0.0521372,10.1793
14532,22785.4,0.000190588,3.20282,2.28126,2.09164,8.02185,6.21633,-0.009971952,10.1175
14727,22981.1,-0.795838,3.024,2.28423,2.12891,8.0315,6.32501,-0.00116954,10.413
14922,23176.9,-0.0670529,3.13419,2.28565,2.16629,8.03605,6.43508,-0.002831507,10.3478
15118,23372.4,0.138998,3.16712,2.29102,2.19011,8.05341,6.50366,0.00424728,10.1932
15313,23568.1,-0.213749,3.05847,2.29481,2.22539,8.06555,6.60419,0.0284385,10.3926
15508,23763.8,-0.008825303,2.96152,2.29619,2.26354,8.06983,6.71218,0.0317009,10.8605
15704,23959.4,-2.04022,2.5411,2.30149,2.28508,8.08592,6.76975,-0.06598711,10.5204
15900,24537.9,1.09994,3.29054,2.3374,2.31633,8.19813,6.84506,0.00086174,11.1046
16095,25513.2,1.09994,3.53491,2.6354,2.31633,9.23514,6.84506,6.15597e-05,10.159
16290,26488.5,1.09994,3.56353,2.93342,2.31633,10.2924,6.84506,0.0,10.8711
16485,27459.8,0.784761,3.60016,3.21811,2.31633,11.3133,6.84506,0.0,11.0981
16680,28435.1,0.09203998,3.60016,3.2974,2.31633,11.5988,6.84506,-6.1512e-05,10.9361
16899,29141.6,0.073069,3.37517,3.30853,2.33253,11.6388,6.89668,0.01218791,10.2103
17094,29337.3,-0.311985,3.2336,3.31338,2.39308,11.656,7.07288,0.0305314,9.90096
17289,29533,-0.599366,3.19882,3.32457,2.43032,11.6952,7.18293,-0.0171123,9.8391
17484,29728.6,0.000190588,3.31824,3.33234,2.45309,11.7225,7.25386,0.0,10.0898
17679,29924.3,-0.687083,3.18004,3.33733,2.48781,11.7396,7.36089,0.002031326,9.84557
17874,30120,-0.39463,3.23175,3.34162,2.51244,11.7543,7.43688,-0.0169892,10.0418
18069,30315.7,-2.12455,2.95014,3.34697,2.53333,11.7727,7.50129,-0.0718348,10.0865
18265,30510.6,-0.31668,3.23298,3.35177,2.562,11.7893,7.58869,0.0197592,10.5961
18460,30706.2,0.764851,3.37702,3.35644,2.62235,11.8057,7.76161,0.0216058,10.0694
18655,30901.8,-0.789451,3.12926,3.36785,2.6598,11.8453,7.87087,-0.005970859,10.334
18850,31097.5,0.000190588,3.28069,3.37564,2.68318,11.8723,7.94285,-6.15597e-05,10.1793
19045,31293,-1.20813,3.06155,3.38064,2.71661,11.8892,8.04462,-0.020621,10.1793
19240,31488.7,-0.930325,3.10064,3.38484,2.74228,11.9035,8.12288,-0.006524849,10.2135
19435,31684.3,0.000190588,3.27268,3.39029,2.76263,11.9221,8.18487,0.0374871,10.7848
19631,31879.5,-0.876981,3.10525,3.3951,2.79141,11.9386,8.27154,0.0155734,10.4373
19826,32075.2,-1.05279,3.03293,3.39941,2.85232,11.9536,8.44439,0.0507215,10.369
20021,32270.8,-0.609321,3.1388,3.41119,2.88917,11.9942,8.55089,0.0,10.0662
20216,32466.5,0.740808,3.38995,3.41879,2.9132,12.0205,8.62448,-0.0177895,10.2103
20411,32662,-0.720517,3.13203,3.42395,2.94567,12.0379,8.7227,-0.029054,9.93188
20606,32857.6,-1.50546,2.98768,3.42816,2.97105,12.0521,8.79971,-0.001846647,9.96281
20801,33053.2,-0.438019,3.18743,3.43359,2.99191,12.0706,8.86291,-0.00332398,10.2103
20997,33248.6,-1.7981,2.93413,3.4384,3.02004,12.087,8.94719,-0.0317009,10.5236
21192,33444.2,-2.74327,2.7153,3.44269,3.08036,12.1019,9.11703,-0.00627861,10.1793
21387,33639.8,-0.243802,3.17143,3.45447,3.11861,12.1422,9.22636,-0.009725714,10.1484
21582,33835.473,1.08172,3.41241,3.46104,3.14326,12.1648,9.3012,0.0337322,10.0247
21777,34031.1,0.5943,3.32285,3.46709,3.17539,12.1851,9.39729,0.0142192,10.0312
21972,34226.8,-1.57853,2.93936,3.47144,3.19972,12.1997,9.47033,-0.004616642,10.1793
22167,34422.5,-0.457742,3.14927,3.47688,3.22165,12.2179,9.53583,-0.0139114,10.8881
22363,34617.5,0.01991285,3.20343,3.48168,3.24912,12.2341,9.61701,0.0296696,10.6717
22558,34813.1,-3.84922,2.47585,3.48598,3.30746,12.2489,9.77884,-0.002277517,10.6856
22753,35008.8,-0.632988,3.03416,3.49776,3.3484,12.2886,9.89259,-0.01224947,10.5961
22948,35204.5,-0.404398,3.08032,3.50397,3.37331,12.3096,9.96658,0.0,10.1175
23143,35400,-0.287379,3.08463,3.51006,3.40551,12.3297,10.0604,0.01132617,10.0833
23338,35595.6,-2.66964,2.67468,3.51478,3.42769,12.3451,10.1254,-0.0431502,10.0556
23533,35791.3,-0.0486455,3.12649,3.5202,3.45162,12.3629,10.1943,-0.001846647,11.1184
23729,35986.5,-0.511649,2.95783,3.52502,3.47844,12.3785,10.2699,0.002708435,11.129
23879,36135.4,-0.000748567,2.64267,3.52922,3.51679,12.3922,10.3654,0.0,10.8743