Folder: getcode/Battery Data/RAW (part 5)

File: A123_16.csv
,Test_Time(s),Current(A),Voltage(V),Charge_Capacity(Ah),Discharge_Capacity(Ah),Charge_Energy(Wh),Discharge_Energy(Wh),dV/dt(V/s),Temperature (C)_1
1,8.01892,-1.09978,2.51926,0.0,0.001530175,0.0,0.003883534,-0.003877926,50.7337
232,1161.74,1.0996,3.54998,0.308761,0.008493679,1.06407,0.0204658,0.0,51.2134
439,2197.75,1.0996,3.57953,0.625185,0.008493679,2.19293,0.0204658,0.0,51.9357
646,3232.23,1.0395,3.60107,0.938385,0.008493679,3.31883,0.0204658,-6.15597e-05,51.8256
853,4268.16,0.0675799,3.60107,1.0852,0.008493679,3.84753,0.0204658,-6.15597e-05,51.3196
1084,4672.87,0.481,3.50074,1.08979,0.0309472,3.86388,0.0946616,0.000615549,51.6827
1292,4880.07,-0.481361,3.25391,1.09648,0.07106,3.88844,0.211933,-0.000184679,51.8587
1499,5088.17,-3.84935,2.54049,1.09968,0.0964508,3.89945,0.293272,-0.140959,51.5791
1707,5295.38,-0.481361,3.24221,1.10716,0.137151,3.92666,0.411344,-0.000184631,51.5328
1914,5503.29,-0.962451,3.12833,1.11143,0.185057,3.94151,0.552455,-6.15597e-05,51.6032
2122,5710.28,-0.481541,3.23513,1.11784,0.205333,3.9648,0.616923,-6.15597e-05,51.7991
2329,5918.17,-0.000451223,3.337,1.12532,0.250196,3.9919,0.747729,0.0,51.812
2537,6125.56,-0.000451223,3.33362,1.12852,0.272671,4.00287,0.819405,0.000123072,51.6357
2745,6333.05,-0.481361,3.23021,1.13493,0.313972,4.02629,0.938774,-6.15597e-05,51.5328
2952,6540.77,-2.40554,2.79748,1.13813,0.347016,4.03726,1.03794,0.0623544,51.7196
3160,6748.3,-0.481361,3.22344,1.1456,0.380077,4.06428,1.13653,-6.15597e-05,51.7259
3367,6956.17,-0.96227,3.09663,1.14988,0.429123,4.07907,1.27969,0.0,51.7222
3575,7163.53,-0.481361,3.20251,1.15629,0.448273,4.10222,1.34017,-6.15597e-05,51.5593
3782,7371.26,-0.000451223,3.30469,1.16376,0.491906,4.12916,1.46531,0.0,51.6095
3990,7578.81,-0.000270769,3.30161,1.16696,0.514373,4.14003,1.53615,0.0,51.4894
4198,7786.17,-0.96227,3.08648,1.17337,0.557742,4.1634,1.66003,-0.000184631,51.5924
4405,7994,-2.40572,2.71869,1.17657,0.594882,4.17429,1.76771,-0.000184679,51.7524
4613,8201.31,-0.96227,3.07786,1.18404,0.623047,4.20135,1.85173,-0.0217902,51.8253
4820,8409.09,1.92463,3.72326,1.18836,0.673224,4.21623,1.99513,0.131418,51.8489
5028,8616.76,-0.481361,3.18281,1.19472,0.691245,4.23927,2.05183,-6.15597e-05,51.6465
5236,8823.98,-0.000451223,3.29699,1.2022,0.733648,4.26631,2.17075,0.0,51.6026
5443,9031.72,-0.481361,3.18404,1.20541,0.757277,4.27719,2.24491,-6.15597e-05,51.6723
5651,9239.2,0.480819,3.39394,1.21224,0.800989,4.30198,2.36795,0.000677109,51.5825
5858,9447.13,-2.40572,2.69869,1.21502,0.842643,4.31141,2.48646,-0.000246191,51.8124
6066,9654.5,-0.96227,3.05232,1.22251,0.867137,4.33834,2.56087,-0.000123119,52.1282
6273,9862.23,-0.000631677,3.26375,1.23108,0.914839,4.3688,2.69544,-0.0870991,52.1215
6481,10069.7,-0.481541,3.14249,1.23322,0.934055,4.37598,2.75522,6.1512e-05,52.1518
6689,10277.1,-0.000270769,3.25114,1.2407,0.975273,4.40266,2.86878,-6.15597e-05,51.8393
6896,10484.9,-0.481361,3.13049,1.2439,1.00014,4.41338,2.94565,-6.15597e-05,52.1449
7104,10692.2,-0.000270769,3.2299,1.25138,1.04262,4.43992,3.06257,6.1512e-05,51.9651
7311,10900,0.962451,3.40995,1.25458,1.08755,4.45065,3.1871,0.0015389,51.9918
7519,11107.5,0.481,3.31238,1.26186,1.10948,4.47628,3.25341,0.00049243,52.3379
7726,11315.3,-0.000451223,3.20097,1.26954,1.15652,4.50325,3.38281,-6.15597e-05,52.1783
7934,11522.6,-0.96227,2.9646,1.27168,1.17807,4.51029,3.44829,-0.000246191,52.2811
8142,11730.1,-0.481541,3.02462,1.27915,1.21789,4.5361,3.55404,-0.00043087,52.4841
8349,11937.8,-0.481361,2.93906,1.28235,1.24299,4.54632,3.62785,-0.00036931,52.3815
8557,12145.4,-0.000631677,2.80579,1.28984,1.28429,4.56998,3.72805,0.000123072,51.8158
8765,13087.2,1.0996,3.50782,1.45744,1.29817,5.13831,3.76293,6.15597e-05,51.8654
8972,14122.8,1.09978,3.58107,1.77371,1.29817,6.26369,3.76293,6.15597e-05,52.2148
9179,15154.2,1.05863,3.60107,2.08675,1.29817,7.38832,3.76293,0.0,52.341
9386,16189.6,0.406653,3.60076,2.35094,1.29817,8.33971,3.76293,-0.000123072,51.7455
9617,16937.1,0.319494,3.46411,2.37468,1.31876,8.42512,3.82642,0.0240061,51.9352
9824,17144.9,0.0959112,3.36593,2.37757,1.35391,8.43516,3.93464,0.0562605,51.8587
10031,17353,-0.617423,3.21113,2.38127,1.38459,8.44789,4.02975,-0.039887,51.9323
10239,17560.1,0.292606,3.40841,2.38725,1.41754,8.46838,4.12667,-0.0177892,51.7229
10446,17767.9,-2.06286,2.86427,2.38841,1.45936,8.47234,4.25351,-0.0205591,51.6325
10653,17975.7,-0.835772,3.14772,2.3923,1.48707,8.48568,4.33983,0.03477807,51.8054
10861,18183.3,-1.7597,2.93228,2.39803,1.52108,8.50526,4.43837,0.0401949,51.8587
11068,18391.2,-1.52186,2.98922,2.39977,1.56139,8.51121,4.56167,-0.052875,51.8423
11275,18599,-0.000451223,3.33054,2.40377,1.5881,8.52489,4.64465,-0.0104642,51.7957
11483,18806.4,0.249117,3.37178,2.40871,1.62535,8.54173,4.75304,0.0421646,51.5393
11690,19014.4,-0.277087,3.24867,2.41042,1.66433,8.54756,4.87201,0.0212977,51.5727
11897,19222.2,0.067219,3.31577,2.4144,1.69331,8.56109,4.95914,0.0741112,51.4594
12105,19429.5,-1.46231,2.97506,2.41956,1.72674,8.57861,5.0573,0.0395793,51.5725
12312,19637.4,-0.606596,3.16127,2.42104,1.76721,8.58363,5.18028,0.0135419,51.3363
12520,19844.8,-0.000270769,3.30069,2.42638,1.79202,8.60172,5.25412,6.15597e-05,51.7991
12727,20052.5,-0.885938,3.09633,2.43019,1.83027,8.61461,5.36681,-0.008925343,51.9053
12934,20260.4,-0.009834825,3.28807,2.4317,1.87041,8.61973,5.4886,0.0480122,51.6224
13142,20467.9,0.0872494,3.30838,2.43703,1.89572,8.63776,5.56325,0.05933819,51.9456
13349,20675.6,-0.956496,3.07786,2.441,1.93243,8.65115,5.67176,-0.04444208,51.6662
13556,20883.5,-0.829095,3.10556,2.44242,1.97158,8.65597,5.7903,-0.0209284,51.7822
13764,21091,-0.000451223,3.29392,2.44864,1.99477,8.677,5.85827,6.15597e-05,51.822
13971,21298.9,-0.648642,3.14157,2.45174,2.0342,8.68742,5.97505,0.00867915,51.9785
14178,21506.6,-0.10331,3.25544,2.4533,2.07304,8.69269,6.09235,0.0317004,51.8723
14386,21714.1,-0.456639,3.16342,2.45926,2.10167,8.71279,6.17515,0.0393331,52.1814
14593,21921.9,-0.371284,3.17635,2.46236,2.13593,8.72316,6.2768,0.0159425,52.2646
14800,22129.7,0.19895,3.29915,2.46526,2.17283,8.73288,6.38696,-0.0213593,52.1187
15008,22337.1,-2.4539,2.67837,2.46999,2.20521,8.74865,6.47945,-0.0209284,52.0188
15215,22545,-1.06296,2.98953,2.47299,2.24059,8.7586,6.58387,-0.008617592,52.0018
15422,22752.8,-1.66442,2.85565,2.47645,2.27326,8.77015,6.68063,-0.0174198,51.8952
15630,22960.2,0.394923,3.30376,2.48189,2.30667,8.7881,6.7749,0.004616594,52.198
15837,23168,-2.55261,2.60913,2.48379,2.34528,8.79436,6.88732,-0.0383482,52.4278
16044,23375.7,0.03979,3.20312,2.48786,2.3743,8.80775,6.97301,-0.0103411,52.4941
16252,23583.3,-0.000451223,3.19174,2.4936,2.40548,8.82652,7.05962,0.0,52.1414
16459,23791.1,0.364066,3.15296,2.49487,2.44969,8.83057,7.18506,0.0104026,51.7757
16666,23999.1,-1.6249,2.60789,2.49889,2.47641,8.84305,7.26008,-0.0280687,51.7827
16874,25217.2,1.09942,3.55737,2.77132,2.48305,9.79231,7.27587,-6.15597e-05,52.4111
17081,26252.6,1.0996,3.58907,3.08758,2.48305,10.9237,7.27587,6.15597e-05,52.514
17288,27287.2,1.01208,3.60138,3.39474,2.48305,12.0291,7.27587,6.15597e-05,52.0848
17495,28322.7,0.0655949,3.60107,3.5532,2.48305,12.5997,7.27587,0.0,52.0517
17726,28703.5,-2.97271,2.69899,3.56003,2.51226,12.6248,7.36576,-0.0714028,51.9787
17933,28911.3,-0.000270769,3.3487,3.56979,2.57545,12.6598,7.54397,-0.000123072,51.7661
18140,29119,-1.97371,2.89751,3.57645,2.61182,12.6839,7.65039,-0.0742959,51.7057
18347,29326.8,-0.385359,3.24775,3.58268,2.64581,12.706,7.75301,0.000677109,52.0383
18554,29534.7,-0.000451223,3.33977,3.58888,2.67206,12.7277,7.83428,-6.15597e-05,52.1082
18761,29742.6,-0.458082,3.23328,3.59367,2.69786,12.7445,7.91195,-0.0271454,52.0585
18969,29949.8,-0.575377,3.20251,3.59905,2.72387,12.7636,7.9898,-0.002462149,51.9121
19176,30157.5,-3.84935,2.41,3.60335,2.78325,12.7792,8.1573,-0.115845,51.8653
19383,30365.4,-0.239192,3.26468,3.61519,2.82637,12.8215,8.27901,0.0163118,51.8489
19590,30573.2,-0.000451223,3.329,3.62297,2.85014,12.8494,8.35195,6.15597e-05,51.6733
19797,30780.9,-0.419465,3.22159,3.6281,2.88681,12.8672,8.46325,-0.0134188,51.6395
20004,30988.6,-1.457075,2.99322,3.63395,2.91004,12.8876,8.53334,-0.0566298,51.5492
20211,31196.5,-0.000451223,3.30715,3.63999,2.93885,12.9089,8.61963,-0.000123119,51.5292
20419,31404.1,-9.03152e-05,3.30561,3.64518,2.96314,12.9273,8.6924,-6.15597e-05,51.6125
20626,31612,-1.6276,2.9329,3.65304,3.02688,12.9549,8.86778,0.0497357,51.8124
20833,31819.8,-0.000451223,3.30007,3.66295,3.06514,12.9904,8.97732,0.0,51.8021
21040,32027.7,-2.32939,2.77501,3.66915,3.0948,13.0122,9.06635,-0.0594613,51.9152
21247,32235.4,-0.434082,3.19204,3.67346,3.1295,13.027,9.17115,0.0068325,52.0487
21454,32443.2,-0.000451223,3.29515,3.68,3.15279,13.0497,9.24033,-6.15597e-05,51.8858
21662,32650.6,-0.92618,3.09633,3.68415,3.17373,13.0643,9.30304,-0.040318,51.8255
21869,32858.5,-2.19748,2.77317,3.68986,3.22718,13.0845,9.45179,0.0795895,51.8187
22076,33066.3,-0.000451223,3.29145,3.70172,3.27378,13.1265,9.5835,6.15597e-05,51.9319
22283,33274.2,-0.000270769,3.29238,3.70791,3.30375,13.1485,9.6711,6.15597e-05,52.0418
22490,33481.9,-0.385359,3.19143,3.714,3.34066,13.1695,9.78103,0.0498589,52.501
22697,33689.7,-1.6036,2.91628,3.7187,3.36585,13.1857,9.85685,0.03151574,52.4009
22904,33897.4,-0.000451223,3.26622,3.72413,3.39006,13.2044,9.92884,0.000307798,52.3244
23112,34105,-0.745545,3.0874,3.729,3.42108,13.2213,10.0199,0.004308796,52.1353
23319,34312.9,1.46664,3.56629,3.73559,3.4826,13.2443,10.1867,0.0270838,51.9692
23526,34520.7,-0.994391,3.02061,3.74814,3.51967,13.2884,10.2893,0.004308796,52.0851
23733,34728.5,-0.000451223,3.2299,3.7539,3.5461,13.3084,10.3677,0.0,51.9651
23940,34936.3,-0.370562,3.13418,3.75839,3.58091,13.3234,10.4702,-0.0127417,52.3975
24147,35144.2,0.126588,3.23236,3.76377,3.60849,13.3417,10.5505,0.0165581,52.4342
24354,35351.9,-0.273117,3.13203,3.76975,3.63346,13.3622,10.6222,0.017666,52.5609
24562,35559.3,1.35422,3.48504,3.7754,3.66089,13.3816,10.7002,0.1513,52.1415
24769,35767.2,1.18387,3.40379,3.78551,3.72641,13.4159,10.8732,-0.009356213,51.8952
24976,35975.1,-0.385179,2.94952,3.79277,3.76103,13.4403,10.9655,0.0357014,51.6756
25183,36183,-1.39337,2.51649,3.79896,3.79547,13.4601,11.0564,0.0208669,51.6424
25340,36339.6,-0.000631677,2.5525,3.80323,3.81426,13.4723,11.1037,0.0,51.8423