Folder: getcode/Battery Data/RAW (part 3)

File: A123_11.csv
,Test_Time(s),Current(A),Voltage(V),Charge_Capacity(Ah),Discharge_Capacity(Ah),Charge_Energy(Wh),Discharge_Energy(Wh),dV/dt(V/s),Temperature (C)_1
1,8.01135,-1.09937,2.88858,0.0,0.00152871,0.0,0.004426596,-0.00141578,31.2424
226,1132.7,1.09994,3.4869,0.26612,0.0423834,0.899635,0.114123,0.0,31.763
427,2138.63,1.09994,3.52352,0.573496,0.0423834,1.9785,0.114123,0.0,32.6552
628,3144.58,1.09994,3.56569,0.880884,0.0423834,3.0674,0.114123,0.000123119,32.4187
829,4149.21,0.10763,3.59985,1.03771,0.0423834,3.63053,0.114123,-6.15597e-05,32.02
1054,4842.44,-0.96188,3.27607,1.0487,0.0529103,3.67002,0.149606,-0.0158812,31.9119
1255,5044.29,-0.96188,3.17543,1.05298,0.101516,3.68483,0.298499,0.0,31.8408
1457,5245.68,-0.480845,3.25883,1.05939,0.119292,3.70764,0.3559,-6.15597e-05,31.6751
1658,5447.66,0.000190588,3.33424,1.06687,0.163157,3.73413,0.487978,-6.15597e-05,31.8543
1860,5648.88,0.000190588,3.32839,1.07008,0.185599,3.74504,0.56027,-0.0146501,32.0133
2062,5850.18,-0.480845,3.2536,1.07649,0.225452,3.76786,0.679272,-0.000184631,31.9321
2263,6052.14,-0.480657,3.24837,1.0797,0.249759,3.77874,0.75753,-6.15597e-05,32.0639
2465,6253.36,0.000378419,3.32439,1.08719,0.290876,3.80519,0.880179,0.000123119,31.8712
2666,6455.29,0.962825,3.42811,1.08992,0.335773,3.81446,1.01542,0.104828,32.2364
2868,6656.57,-0.96188,3.15511,1.09682,0.357273,3.83881,1.08376,-0.000184679,32.0335
3069,6858.49,1.92527,3.58908,1.10344,0.404705,3.86174,1.22605,0.00141578,32.0166
3271,7059.75,-0.480657,3.21667,1.1075,0.422422,3.87585,1.28263,-0.000123119,31.9456
3472,7261.65,0.000190588,3.29546,1.11499,0.465087,3.90207,1.40913,6.15597e-05,31.949
3674,7462.97,0.000190588,3.29115,1.1182,0.487502,3.91288,1.48044,0.000123119,31.9998
3876,7664.25,-0.480845,3.21298,1.12463,0.528544,3.93552,1.60178,-0.000123119,31.8847
4077,7866.18,-3.84922,2.6876,1.12784,0.553843,3.94628,1.68169,-0.104398,32.047
4279,8067.47,-0.480845,3.21421,1.13532,0.592978,3.97243,1.79709,-0.0148963,31.8002
4480,8269.42,-0.962068,3.1151,1.1396,0.638564,3.98689,1.93291,-0.000307798,31.9456
4682,8470.65,0.481226,3.35671,1.14594,0.659595,4.00909,1.99917,0.000430918,31.7902
4883,8672.53,-0.000185074,3.27915,1.15348,0.706626,4.03538,2.13893,0.0,31.9394
5085,8873.84,-0.480657,3.20036,1.15562,0.725556,4.04254,2.1991,-6.15597e-05,31.9537
5287,9075.14,0.000190588,3.27976,1.16311,0.767012,4.06862,2.32079,6.15597e-05,32.0442
5488,9277.05,-0.480657,3.20097,1.16631,0.789984,4.07932,2.39353,-0.000184679,32.1011
5690,9478.34,-0.962068,3.11356,1.17273,0.832282,4.10176,2.51779,-0.00036931,31.9389
5891,9680.29,-2.40574,2.85503,1.17593,0.864674,4.11244,2.61527,0.0440119,31.9424
6093,9881.53,-0.480657,3.17789,1.18342,0.896164,4.13837,2.70949,-0.000123119,32.0237
6294,10083.5,-0.962068,3.07201,1.18769,0.942973,4.15263,2.84713,0.0,32.0876
6496,10284.7,-0.480657,3.16096,1.1941,0.962736,4.17479,2.90868,-0.000184679,31.9863
6697,10486.7,2.75712e-06,3.2299,1.20157,1.00863,4.20047,3.04247,0.0,32.0641
6899,10687.9,-0.962068,3.06124,1.20372,1.02965,4.20753,3.108,-0.000246239,32.3985
7101,10889.2,0.000190588,3.21667,1.21122,1.069,4.2332,3.22052,6.15597e-05,32.152
7302,11091.2,-0.480845,3.12187,1.21442,1.09318,4.24368,3.29538,-0.000123119,32.429
7504,11292.4,0.481226,3.25145,1.22099,1.13635,4.26612,3.41875,0.0449968,32.2668
7705,11494.4,-2.40574,2.74269,1.22404,1.17271,4.27603,3.52378,-0.000861788,32.3208
7907,11695.6,-0.480657,3.04985,1.23151,1.19933,4.30108,3.60145,-0.000246191,32.1112
8108,11897.6,-0.962068,2.73038,1.23578,1.24734,4.31438,3.73196,-0.00116954,32.1957
8310,12098.8,-0.480845,2.71499,1.24222,1.26589,4.33438,3.78295,-0.000984907,31.9524
8512,13007.7,1.09994,3.44042,1.39926,1.27744,4.85662,3.81288,0.0,31.8273
8713,14013.8,1.10013,3.51152,1.70667,1.27744,5.92919,3.81288,6.15597e-05,32.047
8914,15019.7,1.09994,3.54414,2.01403,1.27744,7.01301,3.81288,0.0,32.8994
9115,16024.3,0.235731,3.60016,2.26644,1.27744,7.91425,3.81288,0.0,32.6282
9340,16868.5,-0.129225,3.37548,2.28763,1.29062,7.9905,3.85515,0.0398262,31.9828
9541,17070.5,-0.104807,3.32193,2.29074,1.32417,8.00117,3.961,0.0112031,31.976
9742,17272.3,0.0591695,3.33978,2.29244,1.36175,8.00693,4.07932,0.00547843,31.8239
9944,17473.6,0.0648045,3.32931,2.2983,1.38952,8.02683,4.16432,0.0164968,31.8678
10145,17675.6,-0.732538,3.21051,2.30139,1.42326,8.03724,4.26946,-0.0164968,31.9016
10346,17877.5,0.521234,3.40441,2.30336,1.46056,8.04392,4.38641,0.003939533,31.7461
10548,18078.6,0.0655558,3.32316,2.30894,1.48857,8.06284,4.472,0.008002186,31.7022
10749,18280.7,-0.829459,3.18651,2.31201,1.52264,8.07317,4.57793,-0.0112031,31.9422
10950,18482.6,0.485546,3.38748,2.3143,1.55932,8.08089,4.69248,0.00166197,31.7597
11152,18683.7,-0.243051,3.2616,2.31962,1.58743,8.09885,4.77799,-0.0129881,31.9253
11353,18885.6,-0.745311,3.17573,2.32262,1.62196,8.10891,4.88472,-0.0142808,31.7497
11554,19087.6,0.198916,3.32593,2.32547,1.65803,8.11848,4.99658,-0.0115108,31.9833
11756,19288.7,-1.03589,3.12403,2.33025,1.6867,8.13447,5.08334,-0.0198207,31.9394
11957,19490.7,-0.97747,3.12988,2.33325,1.72172,8.1445,5.19111,-0.0188359,31.868
12158,19692.7,0.0129631,3.29423,2.33656,1.75671,8.15561,5.29936,-0.0139115,31.9424
12360,19893.7,-2.02237,2.96183,2.34086,1.78738,8.16998,5.39196,-0.0152657,31.8172
12561,20095.6,-1.42169,3.0557,2.34386,1.82149,8.17997,5.49695,-0.0193899,31.8408
12762,20297.6,0.035315,3.29392,2.34733,1.85547,8.1916,5.6018,-0.00486288,31.7664
12964,20498.7,-2.13564,2.93167,2.3515,1.88855,8.20551,5.70129,-0.004924393,31.7664
13165,20700.7,-0.569689,3.17727,2.35451,1.92145,8.21552,5.80273,0.005232191,31.7022
13366,20902.6,2.75712e-06,3.28099,2.35797,1.95425,8.22709,5.90369,0.0,31.7326
13568,21103.8,-0.718639,3.13849,2.36213,1.98909,8.24093,6.00818,0.0456739,31.7124
13769,21305.7,-3.02971,2.78455,2.36513,2.02144,8.25089,6.10767,-0.0602624,31.6785
13970,21507.7,0.000378419,3.26376,2.36859,2.05298,8.26241,6.20434,6.1512e-05,31.6957
14172,21708.7,0.319503,3.28376,2.37302,2.08802,8.27704,6.30867,0.0169277,31.7871
14373,21910.7,-0.226897,3.1902,2.3759,2.12203,8.28656,6.41193,0.02573,31.7567
14574,22112.8,-1.2996,3.03939,2.37921,2.15219,8.2975,6.50426,-0.0405033,31.8141
14776,22313.7,0.333966,3.26684,2.38392,2.18672,8.31296,6.60622,0.00473976,31.9693
14977,22515.7,-0.975592,3.04739,2.38653,2.2215,8.32152,6.71099,-0.0103413,31.9456
15178,22717.7,-0.318934,3.15265,2.38985,2.25243,8.33236,6.80464,0.0398878,31.9591
15380,22918.8,0.311051,3.23267,2.39489,2.28552,8.34877,6.90116,0.000861788,32.1451
15581,23120.8,-0.313863,3.11664,2.39717,2.32075,8.35617,7.00602,0.008002186,32.135
15782,23322.7,0.402149,3.22559,2.40067,2.35125,8.36748,7.09716,0.00880237,32.1755
15984,23523.8,0.283628,3.11787,2.40584,2.38425,8.38388,7.19086,0.000738668,32.2198
16185,23725.8,-0.621906,2.76609,2.40782,2.4201,8.39001,7.2907,-0.000677109,32.2807
16387,24625.6,1.09994,3.43858,2.5616,2.44113,8.90061,7.34359,6.1512e-05,32.2837
16588,25630.8,1.10013,3.51059,2.86873,2.44113,9.97186,7.34359,6.15597e-05,31.9963
16789,26636,1.09994,3.54322,3.17589,2.44113,11.0547,7.34359,0.0,32.6149
16990,27639.2,0.248128,3.60016,3.43236,2.44113,11.9703,7.34359,0.0,32.7025
17215,28473.6,-0.979724,3.27176,3.45415,2.45225,12.0487,7.37945,-0.0235756,32.216
17416,28675.3,-3.84922,2.72915,3.45843,2.51022,12.064,7.55374,-0.0924558,31.9863
17617,28877.1,-0.429003,3.25114,3.47027,2.55324,12.1055,7.68168,-0.0143424,32.1316
17818,29079.1,0.000378419,3.33147,3.47804,2.57796,12.1327,7.75961,-0.0181588,31.8712
18019,29281,-1.1884,3.13634,3.48304,2.61263,12.1499,7.86778,-0.0129881,31.9389
18220,29482.8,1.12098,3.49644,3.48835,2.63732,12.1682,7.9449,0.0223445,32.135
18421,29684.7,0.121342,3.33516,3.49273,2.66209,12.1833,8.02195,0.0152657,32.047
18623,29886.6,-1.3351,3.10679,3.49766,2.69006,12.2004,8.10878,-0.0148348,31.8712
18824,30088.3,0.964891,3.45673,3.50518,2.74994,12.2266,8.28423,-0.0144655,31.9625
19025,30290.2,-0.350302,3.25268,3.51672,2.78632,12.2669,8.39253,0.0110799,31.922
19226,30492.2,0.39426,3.3524,3.52146,2.81342,12.2833,8.47688,0.0433348,31.8273
19427,30694,-0.277612,3.25114,3.52697,2.84575,12.3021,8.57692,-0.0259147,31.9016
19628,30895.9,-1.21301,3.09633,3.53233,2.87287,12.3204,8.66038,-0.002646875,32.2938
19829,31097.9,0.000378419,3.29207,3.53836,2.89673,12.3411,8.73366,0.0,32.1991
20031,31299.9,0.000190588,3.29361,3.54356,2.92097,12.3591,8.80814,6.15597e-05,32.0504
20232,31501.6,-2.67997,2.86981,3.55142,2.98328,12.386,8.98905,-0.0238834,32.02
20433,31703.4,0.000190588,3.28715,3.56134,3.02294,12.4206,9.10719,6.15597e-05,31.8036
20634,31905.2,1.13037,3.4552,3.56695,3.05092,12.4398,9.19333,0.003754854,31.7157
20835,32106.9,0.000190588,3.28653,3.57186,3.07998,12.4564,9.28343,-6.15597e-05,31.8814
21036,32308.7,0.000190588,3.2853,3.57716,3.10592,12.4744,9.36289,0.0,31.9456
21237,32510.5,0.418866,3.34409,3.58229,3.13154,12.492,9.44089,0.00289311,32.0639
21439,32712.3,-2.5776,2.87812,3.58829,3.15927,12.5128,9.52505,-0.04942875,31.9726
21640,32914.2,1.02368,3.43057,3.59788,3.22387,12.5456,9.71192,-0.008125258,31.7191
21841,33115.8,-1.00865,3.10833,3.60471,3.25732,12.5692,9.81121,-0.012865,31.8273
22042,33317.7,-0.404398,3.18774,3.61093,3.28928,12.5904,9.9085,-0.004431963,31.8543
22243,33519.4,-0.316493,3.19943,3.61588,3.31856,12.607,9.99839,0.000123072,32.0774
22444,33721.3,-0.94028,3.10402,3.62173,3.34104,12.6268,10.0662,-0.0267765,31.9726
22646,33922.3,-0.895951,3.09879,3.62589,3.36444,12.6409,10.137,0.0343477,31.9016
22847,34124.4,-1.19329,3.00707,3.63159,3.41568,12.6604,10.2844,0.0457355,32.0335
23048,34326.3,0.000378419,3.22159,3.64345,3.46167,12.7006,10.4175,0.000123119,31.8678
23249,34528.1,2.75712e-06,3.21605,3.64966,3.49156,12.7217,10.5059,0.000123119,31.8577
23450,34730,0.25827,3.23514,3.65472,3.52523,12.7385,10.6063,0.00036931,32.02
23651,34931.8,-0.000185074,3.19574,3.66047,3.55052,12.7575,10.6826,6.1512e-05,32.5978
23852,35133.9,0.000378419,3.18681,3.6659,3.57654,12.7755,10.7596,-0.0212981,32.3613
24054,35335.6,-0.219384,3.13142,3.67066,3.60254,12.7913,10.836,-0.000246239,32.3174
24255,35537.5,-0.823261,2.87996,3.67494,3.65975,12.8058,10.994,-0.0150195,32.3005
24456,35739.4,0.0535346,2.78363,3.68674,3.7036,12.8429,11.1068,0.002646875,32.1383
24596,35879,-0.000185074,2.16562,3.69131,3.72165,12.8564,11.1522,0.0,31.9016

File: A123_12.csv
,Test_Time(s),Current(A),Voltage(V),Charge_Capacity(Ah),Discharge_Capacity(Ah),Charge_Energy(Wh),Discharge_Energy(Wh),dV/dt(V/s),Temperature (C)_1
1,8.01164,-1.09978,2.92521,0.0,0.001529298,0.0,0.00448285,-0.0012311,31.2364
230,1152.24,1.0996,3.51151,0.259873,0.05450437,0.885144,0.14842,0.000123119,31.5919
435,2178.28,1.0996,3.54813,0.573261,0.05450437,1.99286,0.14842,0.0,32.292
640,3204.3,1.09923,3.5943,0.886648,0.05450437,3.1115,0.14842,-6.15597e-05,32.177
845,4227.45,0.133446,3.60107,1.04958,0.05450437,3.69817,0.14842,0.0,31.7034
1074,5075.82,-0.000451223,3.46811,1.06615,0.0614577,3.75777,0.171811,6.15597e-05,31.7745
1279,5281.78,0.962812,3.49612,1.06969,0.106392,3.77011,0.30812,0.00141573,31.7137
1485,5487.07,0.48118,3.42441,1.07649,0.12832,3.79453,0.378173,0.000553989,31.8049
1690,5692.98,-0.000451223,3.33639,1.0843,0.175367,3.82242,0.51888,-6.15597e-05,31.6797
1896,5898.3,-0.962451,3.15727,1.08644,0.195638,3.82971,0.584064,-0.00036931,31.4937
2102,6103.59,-0.481361,3.25175,1.09391,0.23581,3.85637,0.702245,-0.0166196,31.8489
2307,6309.51,-0.481541,3.24221,1.09711,0.260669,3.8673,0.782028,-6.15597e-05,31.6899
2513,6514.83,-0.000270769,3.32746,1.10458,0.30318,3.89391,0.907512,-0.0166196,31.7812
2718,6720.77,0.962812,3.44626,1.10677,0.348095,3.90139,1.04122,0.117507,31.5648
2924,6926.04,0.481,3.3961,1.11428,0.370008,3.9281,1.11068,0.0502897,31.8625
3129,7131.98,-0.000451223,3.30992,1.12275,0.417054,3.95801,1.25032,-0.0673402,31.5072
3335,7337.28,-0.481541,3.21697,1.12488,0.436144,3.96525,1.31128,-6.15597e-05,31.7541
3541,7542.58,-0.000451223,3.30223,1.13236,0.477472,3.99171,1.43198,0.0,31.6154
3746,7748.47,-0.481361,3.20805,1.13556,0.501662,4.00254,1.50877,-0.000123072,31.5512
3952,7953.8,0.481,3.37363,1.14268,0.544838,4.02775,1.63507,0.000553989,31.6257
4157,8159.73,-2.40572,2.83257,1.14518,0.586531,4.03619,1.7582,-0.000123119,31.6323
4363,8365.08,-0.96227,3.11295,1.15265,0.610488,4.06255,1.83244,-0.000307751,31.4599
4568,8571.06,1.92481,3.62108,1.15985,0.658743,4.08765,1.97452,0.001354218,31.5376
4774,8776.27,-0.481541,3.19666,1.16334,0.677158,4.09975,2.03289,0.0,31.6258
4980,8981.59,-0.000270769,3.28838,1.17081,0.719187,4.12604,2.15496,6.15597e-05,31.7512
5185,9187.51,-0.481541,3.19789,1.17401,0.742704,4.13683,2.2293,-0.000123072,31.7744
5391,9392.83,0.481,3.35485,1.18046,0.78655,4.15967,2.35701,0.0502282,31.8285
5596,9598.8,-2.40572,2.81256,1.18363,0.82492,4.17033,2.47018,-0.00036931,31.6526
5802,9804.04,-0.96227,3.10125,1.19112,0.85085,4.19662,2.54914,-0.0172967,31.8657
6007,10009.9,1.92481,3.57799,1.19555,0.900458,4.21162,2.69438,0.101195,31.8285
6213,10215.3,-0.481361,3.1705,1.2018,0.918203,4.23353,2.75017,0.0,31.9063
6419,10420.6,-0.000270769,3.25483,1.20927,0.960902,4.25962,2.87302,6.15597e-05,31.9063
6624,10626.5,-0.481361,3.16034,1.21248,0.983759,4.27028,2.9444,-0.00036931,32.0991
6830,10831.8,-0.96227,3.05909,1.21889,1.02699,4.29275,3.06844,-0.000307751,32.0247
7035,11037.8,-2.40572,2.76178,1.2221,1.06327,4.30336,3.17424,-0.00043087,31.9942
7241,11243.1,-0.481361,3.12803,1.22956,1.09158,4.32917,3.25801,-0.000123119,31.9333
7446,11449.1,-0.962451,3.00276,1.23383,1.14097,4.34331,3.39939,-6.15597e-05,31.8556
7652,11654.3,-0.481361,3.0991,1.24024,1.15925,4.36537,3.45547,-6.15597e-05,31.8387
7857,11860.2,-0.000270769,3.18712,1.24772,1.20258,4.39095,3.57698,-6.1512e-05,31.9978
8063,12065.5,-0.000270769,3.16311,1.25093,1.22504,4.40135,3.64539,0.000184679,32.096
8269,12270.8,-0.96227,2.86273,1.25734,1.26732,4.42265,3.76009,-0.0181585,31.944
8474,12476.7,-2.40572,2.30228,1.26056,1.30151,4.43252,3.85037,-0.005355215,31.9198
8680,13737.1,1.0996,3.51736,1.54948,1.31115,5.42112,3.87146,0.000123119,31.9672
8885,14763.1,1.0996,3.5469,1.86285,1.31115,6.52848,3.87146,0.0,32.4542
9090,15789.2,1.09942,3.59399,2.17622,1.31115,7.64661,3.87146,6.15597e-05,32.2276
9295,16812.6,0.0908584,3.60107,2.31373,1.31115,8.14173,3.87146,0.0,31.6797
9524,17395.6,-2.26009,2.99692,2.32358,1.33285,8.17679,3.93967,-0.07712736,31.5615
9729,17601.6,0.826749,3.47889,2.32518,1.37593,8.18224,4.07392,0.0166812,31.4937
9934,17807.7,-1.6249,3.04924,2.32887,1.40281,8.19482,4.15896,-0.0164965,31.5208
10140,18012.8,-0.343855,3.2616,2.3342,1.43805,8.21294,4.26466,0.0218517,31.636
10345,18218.8,0.0444818,3.32962,2.33598,1.47709,8.219,4.38617,0.0180354,31.5952
10550,18424.8,-0.000270769,3.32992,2.33995,1.50221,8.23246,4.46529,0.000123119,31.6191
10756,18629.8,0.114859,3.3367,2.34493,1.53965,8.24937,4.57766,0.00406256,31.4974
10961,18835.7,-0.590535,3.20743,2.34659,1.57908,8.25501,4.70017,0.0276994,31.5748
11166,19041.8,0.378863,3.37363,2.35068,1.60736,8.26884,4.78721,0.01255703,31.5749
11372,19246.9,-1.17755,3.0994,2.35574,1.64048,8.28598,4.88732,-0.05823021,31.4429
11577,19452.9,-1.00648,3.11664,2.35721,1.68076,8.29093,5.01194,-0.0212977,31.612
11782,19658.9,-0.000270769,3.29822,2.36254,1.7062,8.30888,5.0895,0.000184679,31.2499
11988,19864,-0.565091,3.18558,2.36635,1.743,8.32166,5.20031,0.0163118,31.3955
12193,20070,-0.333389,3.22128,2.36782,1.78308,8.32659,5.32379,0.0179738,31.4632
12399,20275.1,0.0495345,3.28961,2.37314,1.80671,8.34449,5.39524,0.05706067,31.4768
12604,20481.1,-0.11919,3.25821,2.3771,1.84474,8.35774,5.50985,0.02277503,31.4632
12809,20687.1,-0.709996,3.15326,2.37849,1.88431,8.36239,5.63149,-0.0256681,31.3958
13015,20892.2,-0.646657,3.16742,2.38397,1.90878,8.38079,5.70519,-0.0270838,31.4295
13220,21098.1,-0.795712,3.13326,2.38774,1.94613,8.3934,5.81783,-0.007509613,31.6023
13425,21304.1,-0.728041,3.14588,2.38917,1.9847,8.39817,5.93611,-0.0267145,31.4024
13631,21509.2,-0.000270769,3.2813,2.39539,2.00783,8.419,6.00541,0.000123119,31.568
13836,21715.2,-0.840464,3.11941,2.39849,2.04691,8.42932,6.12315,-0.0155117,31.8556
14041,21921.1,-0.825126,3.11633,2.40006,2.08528,8.43456,6.24041,-0.0128033,31.8691
14247,22126.3,-1.65684,2.95814,2.40602,2.11218,8.45446,6.32012,0.0213593,31.7338
14452,22332.3,-0.0136244,3.2419,2.40912,2.14778,8.46473,6.42731,-0.000307751,32.0078
14657,22538.2,0.166108,3.26899,2.41094,2.18569,8.47075,6.54222,-0.004493427,31.8794
14863,22743.4,-0.0944677,3.21205,2.41673,2.21373,8.48992,6.6245,0.003877926,31.8794
15068,22949.4,-1.50598,2.95568,2.41973,2.24879,8.49981,6.72944,-0.0301,31.842
15273,23155.5,0.174589,3.25329,2.42313,2.28447,8.51101,6.83644,-0.00640163,31.8758
15479,23360.5,-1.6323,2.89135,2.42735,2.3187,8.52482,6.93552,0.0279456,31.7541
15684,23566.4,-3.7474,2.51064,2.43035,2.35284,8.53458,7.03676,-0.101133,31.947
15889,23772.4,-1.66442,2.88889,2.4338,2.38458,8.54584,7.13101,-0.0292998,32.3933
16095,23977.5,0.297298,3.20005,2.439,2.41832,8.56264,7.22722,0.00178509,32.1938
16300,24183.4,-1.58628,2.73439,2.44113,2.45466,8.56942,7.33141,-0.0313311,31.5545
16505,24389.1,0.00153377,2.83472,2.4448,2.48595,8.58036,7.41678,0.0549063,31.5037
16711,25485.3,1.0996,3.49797,2.67214,2.49502,9.35423,7.43898,0.0,31.8691
16916,26510.5,1.0996,3.54013,2.98526,2.49502,10.4584,7.43898,-6.15597e-05,32.3966
17121,27535.8,1.0996,3.57983,3.29839,2.49502,11.5729,7.43898,6.1512e-05,32.1634
17326,28560.4,0.129295,3.60107,3.48916,2.49502,12.2589,7.43898,0.0,31.5883
17555,29267.8,-0.867171,3.24283,3.50203,2.51284,12.3052,7.49619,-0.0349012,31.7676
17760,29473.9,0.828373,3.48566,3.50987,2.57372,12.3332,7.67442,-0.009725571,31.683
17965,29679.8,-1.6812,3.04031,3.52109,2.61164,12.3729,7.78706,-0.0367478,31.7001
18170,29885.6,-0.000451223,3.33393,3.52685,2.63722,12.3932,7.8669,0.000123119,31.4937
18375,30091.4,-0.0778659,3.3133,3.53132,2.67187,12.4086,7.97463,0.0184662,31.717
18580,30297,-0.390051,3.2536,3.53667,2.6995,12.4271,8.05999,-0.004862785,31.8116
18785,30503,-1.44679,3.07232,3.54268,2.72264,12.4482,8.13092,0.01132598,31.717
18991,30708.2,0.180183,3.34654,3.54798,2.75072,12.4668,8.21649,0.0478891,31.6425
19196,30914,-0.462774,3.22128,3.55572,2.81751,12.4937,8.41035,0.00997181,31.6763
19401,31119.7,-0.111791,3.29361,3.56568,2.85033,12.5289,8.508,-0.004924345,31.5681
19606,31325.7,-0.2585,3.2536,3.57188,2.88271,12.5505,8.60731,0.006093836,31.5681
19811,31531.7,-0.317148,3.24159,3.57683,2.9124,12.5674,8.69932,0.007386493,31.7137
20016,31737.4,-0.249117,3.24929,3.58267,2.93619,12.5875,8.77161,0.0419799,31.6327
20222,31942.5,0.160694,3.31731,3.58698,2.95992,12.6024,8.84381,0.000123072,31.636
20427,32148.4,-1.10122,3.06709,3.59252,3.01588,12.6218,9.00546,0.0251757,31.5919
20632,32354.1,-1.01388,3.11418,3.60438,3.05567,12.6631,9.12186,-0.0353321,31.4632
20837,32560,-2.08072,2.91936,3.61057,3.08852,12.6848,9.22049,-0.0326852,31.5952
21042,32766,-0.604791,3.17173,3.61667,3.12409,12.7056,9.32883,0.02400608,31.7577
21247,32971.6,-1.5058,3.01138,3.62137,3.15011,12.7217,9.40847,-0.00172353,31.7577
21452,33177.5,-2.43189,2.8538,3.62681,3.17362,12.7403,9.48003,-0.0395178,31.6121
21658,33382.9,-0.331404,3.21451,3.63168,3.20306,12.757,9.56931,0.02462163,31.8625
21863,33588.5,1.46646,3.52259,3.63817,3.26427,12.7796,9.74357,0.0212362,31.8321
22068,33794.5,-0.686717,3.15542,3.65086,3.30095,12.8238,9.84999,-0.001969719,31.8354
22273,34000.2,0.789395,3.41087,3.65656,3.32774,12.8435,9.93198,-0.008863783,31.8929
22478,34206,-0.516369,3.17019,3.66109,3.362,12.8588,10.0362,0.0155732,32.3833
22683,34412.1,-0.394743,3.18004,3.66644,3.38968,12.877,10.1198,0.0122493,32.2345
22888,34618.1,-1.02326,3.07878,3.67247,3.41136,12.8977,10.1848,-0.0360092,31.9098
23094,34823.3,-2.71935,2.75932,3.67766,3.44016,12.9155,10.2704,0.015881,32.0722
23299,35029.1,-0.633483,3.1031,3.68552,3.50722,12.9422,10.4593,6.15597e-05,31.9673
23504,35234.9,-0.111791,3.20035,3.69547,3.54064,12.9765,10.5557,0.003754806,31.6425
23709,35440.6,-0.424157,3.12618,3.70161,3.57299,12.9973,10.6518,-0.004370308,31.7305
23914,35646.4,-0.0536851,3.18804,3.7066,3.60271,13.0139,10.7409,0.0339163,32.4137
24119,35852.2,-0.940255,3.02892,3.71245,3.62563,13.0334,10.8083,-0.0188356,32.4305
24325,36057.6,0.0823771,3.18835,3.71659,3.65063,13.0473,10.8816,0.0472736,32.0755
24530,36263.6,-2.34365,2.68576,3.7223,3.70473,13.0666,11.0308,-0.01311102,31.8827
24735,36469.3,-0.000270769,3.06401,3.73414,3.74615,13.1055,11.1437,0.000184679,31.8589
24940,36675.2,-1.58393,2.63252,3.74034,3.77761,13.1252,11.2285,-0.00116954,31.6459
25092,36826.6,0.00153377,2.45647,3.74489,3.80496,13.1388,11.2973,0.00313926,31.5377